ID;Lat;Lon;Alt;Vel;Ax;Ay;Az;Mx;My;Mz
1;47.4733;19.0634166666667;113.5;0.02;0.101;0.014;1.015;33.44;-56;-57.28
1;47.4733;19.0634166666667;113.5;0.02;0.084;-0.021;1.008;33.44;-56;-57.28
1;47.4733;19.0634166666667;113.5;0.02;0.097;0.06;1.014;33.44;-56;-57.28
1;47.4733;19.0634166666667;113.5;0.02;0.116;-0.073;1.025;33.44;-56;-57.28
1;47.4733;19.0634166666667;113.5;0.02;0.078;0.072;0.988;33.44;-56;-57.28
1;47.4733;19.0634166666667;113.5;0.02;0.121;-0.081;1.033;34.24;-56.8;-58.24
1;47.4733;19.0634166666667;113.5;0.02;0.086;0.065;0.98;34.24;-56.8;-58.24
1;47.4733;19.0634166666667;113.5;0.02;0.109;-0.058;1.038;34.24;-56.8;-58.24
1;47.4733;19.0634166666667;113.5;0.02;0.068;0.056;0.962;34.24;-56.8;-58.24
1;47.4733;19.0634166666667;113.5;0.02;0.121;-0.041;1.034;34.24;-56.8;-58.24
1;47.4733;19.0634166666667;113.5;0.02;0.059;0.047;0.993;34.24;-56.8;-58.24
1;47.4733;19.0634166666667;113.5;0.02;0.098;-0.018;1.036;34.88;-56.48;-56.64
1;47.4733;19.0634166666667;113.5;0.02;0.067;0.044;0.983;34.88;-56.48;-56.64
1;47.4733;19.0634166666667;113.5;0.02;0.117;-0.017;1.021;34.88;-56.48;-56.64
1;47.4733;19.0634166666667;113.5;0.02;0.069;0.019;1.003;34.88;-56.48;-56.64
1;47.4733;19.0634166666667;113.5;0.02;0.092;0.025;1.024;34.88;-56.48;-56.64
1;47.4733;19.0634166666667;113.5;0.02;0.071;-0.037;1.007;34.88;-56.48;-56.64
1;47.4733;19.0634166666667;113.5;0.02;0.102;0.054;1.012;34.88;-56.48;-56.64
1;47.4733;19.0634166666667;113.5;0.02;0.108;-0.053;1.02;34.88;-56.48;-56.64
1;47.4733;19.0634166666667;113.5;0.02;0.079;0.079;1.008;34.88;-56.48;-56.64
1;47.4733;19.0634166666667;113.5;0.02;0.113;-0.089;1.027;34.88;-56.48;-56.64
1;47.4733;19.0634166666667;113.5;0.02;0.094;0.083;0.997;34.88;-56.48;-56.64
1;47.4733;19.0634166666667;113.5;0.02;0.116;-0.097;1.035;34.88;-56.48;-56.64
1;47.4733;19.0634166666667;113.5;0.02;0.074;0.104;0.975;34.88;-56.48;-56.64
1;47.4733;19.0634166666667;113.5;0.02;0.132;-0.111;1.035;34.08;-57.28;-56.96
1;47.4733;19.0634166666667;113.5;0.02;0.092;0.099;0.965;34.08;-57.28;-56.96
1;47.4733;19.0634166666667;113.5;0.02;0.119;-0.1;1.044;34.08;-57.28;-56.96
1;47.4733;19.0634166666667;113.5;0.02;0.047;0.096;0.965;34.08;-57.28;-56.96
1;47.4733;19.0634166666667;113.5;0.02;0.127;-0.081;1.04;34.08;-57.28;-56.96
1;47.4733;19.0634166666667;113.5;0.02;0.068;0.099;0.984;34.08;-57.28;-56.96
1;47.4733;19.0634166666667;113.5;0.02;0.11;-0.067;1.027;34.72;-57.28;-57.12
1;47.4733;19.0634166666667;113.5;0.02;0.06;0.074;0.983;34.72;-57.28;-57.12
1;47.4733;19.0634166666667;113.5;0.02;0.111;-0.042;1.029;34.72;-57.28;-57.12
1;47.4733;19.0634166666667;113.5;0.02;0.046;0.053;0.991;34.72;-57.28;-57.12
1;47.4733;19.0634166666667;113.5;0.02;0.102;-0.006;1.015;34.72;-57.28;-57.12
1;47.4733;19.0634166666667;113.5;0.02;0.081;0.023;0.995;34.72;-57.28;-57.12
1;47.4733;19.0634166666667;113.5;0.02;0.103;0.017;1.032;33.76;-56.96;-57.28
1;47.4733;19.0634166666667;113.5;0.02;0.079;-0.04;1.024;33.76;-56.96;-57.28
1;47.4733;19.0634166666667;113.5;0.02;0.091;0.039;1.005;33.76;-56.96;-57.28
1;47.4733;19.0634166666667;113.5;0.02;0.105;-0.057;1.02;33.76;-56.96;-57.28
1;47.4733;19.0634166666667;113.5;0.02;0.087;0.067;0.991;33.76;-56.96;-57.28
1;47.4733;19.0634166666667;113.5;0.02;0.125;-0.093;1.025;33.76;-56.96;-57.28
1;47.4733;19.0634166666667;113.5;0.02;0.077;0.092;0.986;33.76;-56;-58.08
1;47.4733;19.0634166666667;113.5;0.02;0.118;-0.094;1.039;33.76;-56;-58.08
1;47.4733;19.0634166666667;113.5;0.02;0.089;0.082;0.976;33.76;-56;-58.08
1;47.4733;19.0634166666667;113.5;0.02;0.117;-0.075;1.027;33.76;-56;-58.08
1;47.4733;19.0634166666667;113.5;0.02;0.055;0.08;0.969;33.76;-56;-58.08
1;47.4733;19.0634166666667;113.5;0.02;0.122;-0.048;1.038;33.76;-56;-58.08
1;47.4733;19.0634166666667;113.5;0.02;0.06;0.059;0.981;33.92;-56.48;-58.24
1;47.4733;19.0634166666667;113.5;0.02;0.104;-0.022;1.028;33.92;-56.48;-58.24
1;47.4733;19.0634166666667;113.5;0.02;0.057;0.057;0.992;33.92;-56.48;-58.24
1;47.4733;19.0634166666667;113.5;0.02;0.104;-0.009;1.027;33.92;-56.48;-58.24
1;47.4733;19.0634166666667;113.5;0.02;0.079;0.003;1.007;33.92;-56.48;-58.24
1;47.4733;19.0634166666667;113.5;0.02;0.083;0.032;1.02;33.92;-56.48;-58.24
1;47.4733;19.0634166666667;113.5;0.02;0.101;0.032;1.024;34.56;-56.8;-57.12
1;47.4733;19.0634166666667;113.5;0.02;0.092;-0.051;1.002;34.56;-56.8;-57.12
1;47.4733;19.0634166666667;113.5;0.02;0.115;0.058;1.023;34.56;-56.8;-57.12
1;47.4733;19.0634166666667;113.5;0.02;0.075;-0.072;0.982;34.56;-56.8;-57.12
1;47.4733;19.0634166666667;113.5;0.02;0.121;0.055;1.036;34.56;-56.8;-57.12
1;47.4733;19.0634166666667;113.5;0.02;0.088;-0.072;0.981;34.56;-56.8;-57.12
1;47.4733;19.0634166666667;113.5;0.02;0.108;0.049;1.041;34.08;-56.64;-57.92
1;47.4733;19.0634166666667;113.5;0.02;0.108;-0.041;0.964;34.08;-56.64;-57.92
1;47.4733;19.0634166666667;113.5;0.02;0.062;0.053;0.964;34.08;-56.64;-57.92
1;47.4733;19.0634166666667;113.5;0.02;0.127;-0.045;1.038;34.08;-56.64;-57.92
1;47.4733;19.0634166666667;113.5;0.02;0.064;0.052;0.996;34.08;-56.64;-57.92
1;47.4733;19.0634166666667;113.5;0.02;0.097;-0.018;1.029;34.08;-56.64;-57.92
1;47.4733;19.0634166666667;113.5;0.02;0.058;0.039;0.981;34.08;-56.48;-57.76
1;47.4733;19.0634166666667;113.5;0.02;0.121;-0.006;1.032;34.08;-56.48;-57.76
1;47.4733;19.0634166666667;113.5;0.02;0.064;0.016;0.99;34.08;-56.48;-57.76
1;47.4733;19.0634166666667;113.5;0.02;0.092;0.025;1.02;34.08;-56.48;-57.76
1;47.4733;19.0634166666667;113.5;0.02;0.083;-0.018;0.989;34.08;-56.48;-57.76
1;47.4733;19.0634166666667;113.5;0.02;0.099;0.042;1.024;34.08;-56.48;-57.76
1;47.4733;19.0634166666667;113.5;0.02;0.105;-0.063;1.009;33.6;-56.32;-57.76
1;47.4733;19.0634166666667;113.5;0.02;0.087;0.073;1.001;33.6;-56.32;-57.76
1;47.4733;19.0634166666667;113.5;0.02;0.116;-0.09;1.026;33.6;-56.32;-57.76
1;47.4733;19.0634166666667;113.5;0.02;0.085;0.073;0.991;33.6;-56.32;-57.76
1;47.4733;19.0634166666667;113.5;0.02;0.125;-0.082;1.025;33.6;-56.32;-57.76
1;47.4733;19.0634166666667;113.5;0.02;0.072;0.067;0.983;33.6;-56.32;-57.76
1;47.4733;19.0634166666667;113.5;0.02;0.111;-0.064;1.04;33.76;-56.96;-57.92
1;47.4733;19.0634166666667;113.5;0.02;0.078;0.064;0.98;33.76;-56.96;-57.92
1;47.4733;19.0634166666667;113.5;0.02;0.112;-0.049;1.029;33.76;-56.96;-57.92
1;47.4733;19.0634166666667;113.5;0.02;0.059;0.057;0.976;33.76;-56.96;-57.92
1;47.4733;19.0634166666667;113.5;0.02;0.113;-0.033;1.028;33.76;-56.96;-57.92
1;47.4733;19.0634166666667;113.5;0.02;0.07;0.036;1.008;33.76;-56.96;-57.92
1;47.4733;19.0634166666667;113.5;0.02;0.1;-0.014;1.013;33.76;-57.12;-56.8
1;47.4733;19.0634166666667;113.5;0.02;0.084;0.015;1.002;33.76;-57.12;-56.8
1;47.4733;19.0634166666667;113.5;0.02;0.097;0.024;1.015;33.76;-57.12;-56.8
1;47.4733;19.0634166666667;113.5;0.02;0.099;-0.057;1.018;33.76;-57.12;-56.8
1;47.4733;19.0634166666667;113.5;0.02;0.073;0.076;1.003;33.76;-57.12;-56.8
1;47.4733;19.0634166666667;113.5;0.02;0.121;-0.074;1.026;33.76;-57.12;-56.8
1;47.4733;19.0634166666667;113.5;0.02;0.092;0.059;0.983;33.44;-57.6;-57.44
1;47.4733;19.0634166666667;113.5;0.02;0.113;-0.069;1.037;33.44;-57.6;-57.44
1;47.4733;19.0634166666667;113.5;0.02;0.065;0.071;0.976;33.44;-57.6;-57.44
1;47.4733;19.0634166666667;113.5;0.02;0.117;-0.05;1.027;33.44;-57.6;-57.44
1;47.4733;19.0634166666667;113.5;0.02;0.083;0.064;0.97;33.44;-57.6;-57.44
1;47.4733;19.0634166666667;113.5;0.02;0.115;-0.04;1.043;33.44;-57.6;-57.44
1;47.4733;19.0634166666667;113.5;0.02;0.048;0.059;0.979;34.08;-57.44;-58.72
1;47.4733;19.0634166666667;113.5;0.02;0.134;-0.046;1.037;34.08;-57.44;-58.72
1;47.4733;19.0634166666667;113.5;0.02;0.064;0.058;0.979;34.08;-57.44;-58.72
1;47.4733;19.0634166666667;113.5;0.02;0.107;-0.021;1.016;34.08;-57.44;-58.72
1;47.4733;19.0634166666667;113.5;0.02;0.061;0.045;1.001;34.08;-57.44;-58.72
1;47.4733;19.0634166666667;113.5;0.02;0.099;-0.001;1.026;34.08;-57.44;-58.72
1;47.4733;19.0634166666667;113.5;0.02;0.076;-0.022;1.006;34.4;-56.64;-56.48
1;47.4733;19.0634166666667;113.5;0.02;0.091;0.039;1.013;34.4;-56.64;-56.48
1;47.4733;19.0634166666667;113.5;0.02;0.096;-0.049;1.011;34.4;-56.64;-56.48
1;47.4733;19.0634166666667;113.5;0.02;0.089;0.061;1.008;34.4;-56.64;-56.48
1;47.4733;19.0634166666667;113.5;0.02;0.111;-0.072;1.024;34.4;-56.64;-56.48
1;47.4733;19.0634166666667;113.5;0.02;0.079;0.07;0.998;34.4;-56.64;-56.48
1;47.4733;19.0634166666667;113.5;0.02;0.106;-0.081;1.04;33.92;-56.48;-57.28
1;47.4733;19.0634166666667;113.5;0.02;0.084;0.062;0.976;33.92;-56.48;-57.28
1;47.4733;19.0634166666667;113.5;0.02;0.121;-0.052;1.032;33.92;-56.48;-57.28
1;47.4733;19.0634166666667;113.5;0.02;0.063;0.052;0.976;33.92;-56.48;-57.28
1;47.4733;19.0634166666667;113.5;0.02;0.114;-0.036;1.039;33.92;-56.48;-57.28
1;47.4733;19.0634166666667;113.5;0.02;0.058;0.056;0.992;33.92;-56.48;-57.28
1;47.4733;19.0634166666667;113.5;0.02;0.12;-0.036;1.025;34.4;-56;-56.48
1;47.4733;19.0634166666667;113.5;0.02;0.061;0.056;0.988;34.4;-56;-56.48
1;47.4733;19.0634166666667;113.5;0.02;0.107;-0.01;1.028;34.4;-56;-56.48
1;47.4733;19.0634166666667;113.5;0.02;0.074;0.014;1.009;34.4;-56;-56.48
1;47.4733;19.0634166666667;113.5;0.02;0.079;0.015;1.015;34.4;-56;-56.48
1;47.4733;19.0634166666667;113.5;0.02;0.104;-0.049;1.016;34.4;-56;-56.48
1;47.4733;19.0634166666667;113.5;0.02;0.092;0.05;1.001;34.08;-56.96;-57.12
1;47.4733;19.0634166666667;113.5;0.02;0.113;-0.06;1.028;34.08;-56.96;-57.12
1;47.4733;19.0634166666667;113.5;0.02;0.07;0.064;0.979;34.08;-56.96;-57.12
1;47.4733;19.0634166666667;113.5;0.02;0.124;-0.057;1.03;34.08;-56.96;-57.12
1;47.4733;19.0634166666667;113.5;0.02;0.086;0.049;0.981;34.08;-56.96;-57.12
1;47.4733;19.0634166666667;113.5;0.02;0.108;-0.027;1.037;34.08;-56.96;-57.12
1;47.4733;19.0634166666667;113.5;0.02;0.057;0.047;0.967;34.72;-55.68;-56.32
1;47.4733;19.0634166666667;113.5;0.02;0.114;-0.025;1.022;34.72;-55.68;-56.32
1;47.4733;19.0634166666667;113.5;0.02;0.073;0.039;1;34.72;-55.68;-56.32
1;47.4733;19.0634166666667;113.5;0.02;0.093;0.003;1.024;34.72;-55.68;-56.32
1;47.4733;19.0634166666667;113.5;0.02;0.08;0.002;1.008;34.72;-55.68;-56.32
1;47.4733;19.0634166666667;113.5;0.02;0.105;0.019;1.014;34.72;-55.68;-56.32
1;47.4733;19.0634166666667;113.5;0.02;0.112;-0.036;1.015;34.72;-56.8;-56.96
1;47.4733;19.0634166666667;113.5;0.02;0.068;0.043;0.988;34.72;-56.8;-56.96
1;47.4733;19.0634166666667;113.5;0.02;0.119;-0.071;1.031;34.72;-56.8;-56.96
1;47.4733;19.0634166666667;113.5;0.02;0.071;0.058;0.982;34.72;-56.8;-56.96
1;47.4733;19.0634166666667;113.5;0.02;0.114;-0.024;1.04;34.72;-56.8;-56.96
1;47.4733;19.0634166666667;113.5;0.02;0.064;0.023;0.967;34.72;-56.8;-56.96
1;47.4733;19.0634166666667;113.5;0.02;0.104;0.011;1.044;34.72;-56.8;-56.96
1;47.4733;19.0634166666667;113.5;0.02;0.071;0.024;0.988;34.72;-56.8;-56.96
1;47.4733;19.0634166666667;113.5;0.02;0.093;-0.002;1.02;34.72;-56.8;-56.96
1;47.4733;19.0634166666667;113.5;0.02;0.087;0.014;1.01;34.72;-56.8;-56.96
1;47.4733;19.0634166666667;113.5;0.02;0.094;0.008;1.015;34.72;-56.8;-56.96
1;47.4733;19.0634166666667;113.5;0.02;0.108;-0.028;1.024;34.72;-56.8;-56.96
1;47.4733;19.0634166666667;113.5;0.02;0.08;0.038;0.994;34.72;-56.8;-56.96
1;47.4733;19.0634166666667;113.5;0.02;0.117;-0.065;1.023;32.64;-55.68;-56
1;47.4733;19.0634166666667;113.5;0.02;0.076;0.058;0.978;32.64;-55.68;-56
1;47.4733;19.0634166666667;113.5;0.02;0.12;-0.041;1.023;32.64;-55.68;-56
1;47.4733;19.0634166666667;113.5;0.02;0.072;0.033;0.979;32.64;-55.68;-56
1;47.4733;19.0634166666667;113.5;0.02;0.11;-0.009;1.039;32.64;-55.68;-56
1;47.4733;19.0634166666667;113.5;0.02;0.07;0.028;0.986;32.64;-55.68;-56
1;47.4733;19.0634166666667;113.5;0.02;0.118;-0.007;1.018;34.56;-54.72;-55.04
1;47.4733;19.0634166666667;113.5;0.02;0.066;0.038;0.999;34.56;-54.72;-55.04
1;47.4733;19.0634166666667;113.5;0.02;0.091;0.017;1.017;34.56;-54.72;-55.04
1;47.4733;19.0634166666667;113.5;0.02;0.095;-0.037;1.012;34.56;-54.72;-55.04
1;47.4733;19.0634166666667;113.5;0.02;0.085;0.058;1.02;34.56;-54.72;-55.04
1;47.4733;19.0634166666667;113.5;0.02;0.107;-0.082;1.011;34.56;-54.72;-55.04
1;47.4733;19.0634166666667;113.5;0.02;0.083;0.07;0.996;32.64;-57.28;-54.72
1;47.4733;19.0634166666667;113.5;0.02;0.125;-0.076;1.021;32.64;-57.28;-54.72
1;47.4733;19.0634166666667;113.5;0.02;0.072;0.064;0.982;32.64;-57.28;-54.72
1;47.4733;19.0634166666667;113.5;0.02;0.117;-0.056;1.029;32.64;-57.28;-54.72
1;47.4733;19.0634166666667;113.5;0.02;0.082;0.047;0.975;32.64;-57.28;-54.72
1;47.4733;19.0634166666667;113.5;0.02;0.121;-0.028;1.03;32.64;-57.28;-54.72
1;47.4733;19.0634166666667;113.5;0.02;0.058;0.037;0.972;32.96;-56;-55.52
1;47.4733;19.0634166666667;113.5;0.02;0.111;-0.014;1.036;32.96;-56;-55.52
1;47.4733;19.0634166666667;113.5;0.02;0.063;0.022;0.995;32.96;-56;-55.52
1;47.4733;19.0634166666667;113.5;0.02;0.104;0.007;1.024;32.96;-56;-55.52
1;47.4733;19.0634166666667;113.5;0.02;0.08;0;1.008;32.96;-56;-55.52
1;47.4733;19.0634166666667;113.5;0.02;0.094;0.04;1.019;32.96;-56;-55.52
1;47.4733;19.0634166666667;113.5;0.02;0.1;-0.059;1.016;33.12;-57.76;-55.84
1;47.4733;19.0634166666667;113.5;0.02;0.076;0.063;0.998;33.12;-57.76;-55.84
1;47.4733;19.0634166666667;113.5;0.02;0.128;-0.097;1.03;33.12;-57.76;-55.84
1;47.4733;19.0634166666667;113.5;0.02;0.084;0.066;0.983;33.12;-57.76;-55.84
1;47.4733;19.0634166666667;113.5;0.02;0.111;-0.048;1.034;33.12;-57.76;-55.84
1;47.4733;19.0634166666667;113.5;0.02;0.066;0.051;0.98;33.12;-57.76;-55.84
1;47.4733;19.0634166666667;113.5;0.02;0.116;-0.016;1.04;34.24;-57.92;-56
1;47.4733;19.0634166666667;113.5;0.02;0.069;0.031;0.973;34.24;-57.92;-56
1;47.4733;19.0634166666667;113.5;0.02;0.099;0.001;1.03;34.24;-57.92;-56
1;47.4733;19.0634166666667;113.5;0.02;0.063;0.031;0.993;34.24;-57.92;-56
1;47.4733;19.0634166666667;113.5;0.02;0.112;-0.017;1.032;34.24;-57.92;-56
1;47.4733;19.0634166666667;113.5;0.02;0.096;-0.013;1.008;34.24;-57.92;-56
1;47.4733;19.0634166666667;113.5;0.02;0.078;0.047;1.02;33.12;-57.6;-56.48
1;47.4733;19.0634166666667;113.5;0.02;0.108;-0.082;1.015;33.12;-57.6;-56.48
1;47.4733;19.0634166666667;113.5;0.02;0.089;0.075;0.991;33.12;-57.6;-56.48
1;47.4733;19.0634166666667;113.5;0.02;0.128;-0.068;1.028;33.12;-57.6;-56.48
1;47.4733;19.0634166666667;113.5;0.02;0.061;0.054;0.978;33.12;-57.6;-56.48
1;47.4733;19.0634166666667;113.5;0.02;0.128;-0.029;1.039;33.12;-57.6;-56.48
1;47.4733;19.0634166666667;113.5;0.02;0.068;0.042;0.979;33.76;-58.56;-56
1;47.4733;19.0634166666667;113.5;0.02;0.11;-0.018;1.041;33.76;-58.56;-56
1;47.4733;19.0634166666667;113.5;0.02;0.059;0.057;0.985;33.76;-58.56;-56
1;47.4733;19.0634166666667;113.5;0.02;0.113;-0.036;1.032;33.76;-58.56;-56
1;47.4733;19.0634166666667;113.5;0.02;0.063;0.026;1.008;33.76;-58.56;-56
1;47.4733;19.0634166666667;113.5;0.02;0.08;0.007;1.011;33.76;-58.56;-56
1;47.4733;19.0634166666667;113.5;0.02;0.101;-0.031;1.003;35.52;-57.6;-56.48
1;47.4733;19.0634166666667;113.5;0.02;0.087;0.037;1.008;35.52;-57.6;-56.48
1;47.4733;19.0634166666667;113.5;0.02;0.106;-0.089;1.023;35.52;-57.6;-56.48
1;47.4733;19.0634166666667;113.5;0.02;0.072;0.075;0.981;35.52;-57.6;-56.48
1;47.4733;19.0634166666667;113.5;0.02;0.119;-0.051;1.034;35.52;-57.6;-56.48
1;47.4733;19.0634166666667;113.5;0.02;0.087;0.035;0.977;35.52;-57.6;-56.48
1;47.4733;19.0634166666667;113.5;0.02;0.122;-0.037;1.044;34.08;-57.12;-57.12
1;47.4733;19.0634166666667;113.5;0.02;0.053;0.061;0.976;34.08;-57.12;-57.12
1;47.4733;19.0634166666667;113.5;0.02;0.119;-0.029;1.04;34.08;-57.12;-57.12
1;47.4733;19.0634166666667;113.5;0.02;0.065;0.049;0.985;34.08;-57.12;-57.12
1;47.4733;19.0634166666667;113.5;0.02;0.097;-0.019;1.009;34.08;-57.12;-57.12
1;47.4733;19.0634166666667;113.5;0.02;0.073;0.023;1.013;34.08;-57.12;-57.12
1;47.4733;19.0634166666667;113.5;0.02;0.098;0.002;1.018;34.72;-57.28;-57.6
1;47.4733;19.0634166666667;113.5;0.02;0.102;-0.046;1.022;34.72;-57.28;-57.6
1;47.4733;19.0634166666667;113.5;0.02;0.076;0.055;0.989;34.72;-57.28;-57.6
1;47.4733;19.0634166666667;113.5;0.02;0.128;-0.053;1.025;34.72;-57.28;-57.6
1;47.4733;19.0634166666667;113.5;0.02;0.076;0.048;0.984;34.72;-57.28;-57.6
1;47.4733;19.0634166666667;113.5;0.02;0.113;-0.033;1.034;34.72;-57.28;-57.6
1;47.4733;19.0634166666667;113.5;0.02;0.065;0.022;0.977;34.08;-57.28;-57.12
1;47.4733;19.0634166666667;113.5;0.02;0.108;0.013;1.031;34.08;-57.28;-57.12
1;47.4733;19.0634166666667;113.5;0.02;0.075;0.019;0.988;34.08;-57.28;-57.12
1;47.4733;19.0634166666667;113.5;0.02;0.097;0.003;1.025;34.08;-57.28;-57.12
1;47.4733;19.0634166666667;113.5;0.02;0.08;0.017;1.003;34.08;-57.28;-57.12
1;47.4733;19.0634166666667;113.5;0.02;0.097;0.002;1.019;34.08;-57.28;-57.12
1;47.4733;19.0634166666667;113.5;0.02;0.108;-0.049;1.017;33.92;-57.28;-57.76
5;47.4733;19.0634166666667;113.5;0.02;0.128;-0.072;1.023;33.92;-57.28;-57.76
5;47.4733;19.0634166666667;113.5;0.02;0.08;0.061;0.97;33.92;-57.28;-57.76
6;47.4733;19.0634166666667;113.5;0.02;0.057;0.029;0.976;33.92;-57.28;-57.76
6;47.4733;19.0634166666667;113.5;0.02;0.105;0.007;1.031;34.4;-56.32;-58.24
7;47.4733;19.0634166666667;113.5;0;0.108;-0.002;1.023;33.28;-56.96;-57.6
7;47.4733;19.0634166666667;113.5;0;0.07;0.002;0.996;33.28;-56.96;-57.6
7;47.4733;19.0634166666667;113.5;0;0.096;0.045;1.011;33.28;-56.96;-57.6
7;47.4733;19.0634166666667;113.5;0;0.09;-0.044;1.002;35.04;-57.12;-57.6
7;47.4733;19.0634166666667;113.5;0;0.085;0.058;1.017;35.04;-57.12;-57.6
7;47.4733;19.0634166666667;113.5;0;0.11;-0.08;1.023;35.04;-57.12;-57.6
7;47.4733;19.0634166666667;113.5;0;0.071;0.079;0.991;35.04;-57.12;-57.6
7;47.4733;19.0634166666667;113.5;0;0.136;-0.08;1.026;35.04;-57.12;-57.6
7;47.4733;19.0634166666667;113.5;0;0.091;0.064;0.975;35.04;-57.12;-57.6
7;47.4733;19.0634166666667;113.5;0;0.104;-0.059;1.032;34.88;-57.28;-56.48
7;47.4733;19.0634166666667;113.5;0;0.071;0.055;0.972;34.88;-57.28;-56.48
8;47.4733;19.0634166666667;113.5;0;0.067;0.055;0.98;34.88;-57.28;-56.48
9;47.4733;19.0634166666667;113.5;0;0.058;0.043;0.986;34.88;-57.28;-56.48
9;47.4733;19.0634166666667;113.5;0;0.116;-0.02;1.023;33.6;-57.6;-57.6
9;47.4733;19.0634166666667;113.5;0;0.055;0.037;1.002;33.6;-57.6;-57.6
9;47.4733;19.0634166666667;113.5;0;0.095;0.007;1.021;33.6;-57.6;-57.6
9;47.4733;19.0634166666667;113.5;0;0.072;0.003;0.996;33.6;-57.6;-57.6
9;47.4733;19.0634166666667;113.5;0;0.1;0.027;1.023;33.6;-57.6;-57.6
9;47.4733;19.0634166666667;113.5;0;0.112;-0.032;1.009;33.6;-57.6;-57.6
9;47.4733;19.0634166666667;113.5;0;0.075;0.062;0.999;33.6;-57.6;-57.6
9;47.4733;19.0634166666667;113.5;0;0.119;-0.085;1.027;33.6;-57.6;-57.6
9;47.4733;19.0634166666667;113.5;0;0.096;0.059;0.986;33.6;-57.6;-57.6
10;47.4733;19.0634166666667;113.5;0;0.06;0.046;0.967;35.2;-56.48;-56.8
10;47.4733;19.0634166666667;113.5;0;0.105;0.005;1.023;35.2;-56.48;-56.8
10;47.4733;19.0634166666667;113.5;0;0.069;0.07;0.968;34.4;-56.8;-57.12
10;47.4733;19.0634166666667;113.5;0;0.138;-0.017;1.019;34.4;-56.8;-57.12
10;47.4733;19.0634166666667;113.5;0;0.092;0.028;0.995;34.4;-56.8;-57.12
10;47.4733;19.0634166666667;113.5;0;0.123;0.017;1.04;34.4;-56.8;-57.12
10;47.4733;19.0634166666667;113.5;0;0.104;-0.034;1.014;34.4;-56.8;-57.12
10;47.4733;19.0634166666667;113.5;0;0.099;0.052;1.007;34.4;-56.8;-57.12
10;47.4733;19.0634166666667;113.5;0;0.117;-0.057;1.024;34.56;-56.48;-57.12
10;47.4733;19.0634166666667;113.5;0;0.055;0.075;0.996;34.56;-56.48;-57.12
10;47.4733;19.0634166666667;113.5;0;0.113;-0.07;1.023;34.56;-56.48;-57.12
10;47.4733;19.0634166666667;113.5;0;0.071;0.015;0.967;34.56;-56.48;-57.12
11;47.4733;19.0634166666667;113.5;0;0.066;-0.005;1.016;34.08;-57.28;-57.12
12;47.4733;19.0634166666667;113.5;0;0.125;0.002;1.028;34.4;-55.84;-57.92
12;47.4733;19.0634166666667;113.5;0;0.089;0.037;0.998;34.4;-55.84;-57.92
12;47.4733;19.0634166666667;113.5;0;0.13;-0.049;1.016;34.4;-55.84;-57.92
12;47.4733;19.0634166666667;113.5;0;0.085;0.042;0.976;34.4;-55.84;-57.92
12;47.4733;19.0634166666667;113.5;0;0.106;0.007;1.013;34.4;-55.84;-57.92
12;47.4733;19.0634166666667;113.5;0;0.074;0.01;0.983;34.4;-55.84;-57.92
12;47.4733;19.0634166666667;113.5;0;0.1;0.027;1.032;34.56;-57.6;-55.68
12;47.4733;19.0634166666667;113.5;0;0.104;-0.03;1.008;34.56;-57.6;-55.68
13;47.4733;19.0634166666667;113.5;0;0.05;0.005;1.023;34.56;-57.6;-55.68
14;47.4733;19.0634166666667;113.5;0;0.145;-0.052;1.023;34.56;-57.6;-55.68
14;47.4733;19.0634166666667;113.5;0;0.032;0.068;1.018;33.12;-57.12;-57.44
14;47.4733;19.0634166666667;113.5;0;0.086;-0.008;1.038;33.12;-57.12;-57.44
14;47.4733;19.0634166666667;113.5;0;0.077;-0.026;0.971;33.12;-57.12;-57.44
14;47.4733;19.0634166666667;113.5;0;0.125;0.012;1.021;33.12;-57.12;-57.44
14;47.4733;19.0634166666667;113.5;0;0.057;0.028;0.986;33.12;-57.12;-57.44
14;47.4733;19.0634166666667;113.5;0;0.099;0.035;1.023;33.12;-57.12;-57.44
14;47.4733;19.0634166666667;113.5;0;0.123;-0.044;1.011;34.88;-56.48;-58.4
14;47.4733;19.0634166666667;113.5;0;0.12;0.055;1.009;34.88;-56.48;-58.4
14;47.4733;19.0634166666667;113.5;0;0.144;-0.048;1.032;34.88;-56.48;-58.4
14;47.4733;19.0634166666667;113.5;0;0.084;0.06;0.986;34.88;-56.48;-58.4
14;47.4733;19.0634166666667;113.5;0;0.124;-0.041;1.032;34.88;-56.48;-58.4
15;47.4733;19.0634166666667;113.5;0.04;0.087;-0.013;1.04;34.56;-56.96;-57.28
15;47.4733;19.0634166666667;113.5;0.04;0.065;-0.01;0.982;34.56;-56.96;-57.28
15;47.4733;19.0634166666667;113.5;0.04;0.071;0.018;1.032;34.56;-56.96;-57.28
15;47.4733;19.0634166666667;113.5;0.04;0.074;-0.011;1.013;34.56;-56.96;-57.28
15;47.4733;19.0634166666667;113.5;0.04;0.091;0.001;1.009;34.56;-56.96;-57.28
15;47.4733;19.0634166666667;113.5;0.04;0.128;-0.057;1.017;34.56;-56.96;-57.28
15;47.4733;19.0634166666667;113.5;0.04;0.085;0.069;0.984;33.76;-57.44;-57.76
15;47.4733;19.0634166666667;113.5;0.04;0.141;-0.072;1.032;33.76;-57.44;-57.76
15;47.4733;19.0634166666667;113.5;0.04;0.1;0.059;0.979;33.76;-57.44;-57.76
15;47.4733;19.0634166666667;113.5;0.04;0.128;-0.033;1.044;33.76;-57.44;-57.76
15;47.4733;19.0634166666667;113.5;0.04;0.063;0.058;0.971;33.76;-57.44;-57.76
16;47.4733;19.0634166666667;113.5;0.04;0.079;-0.012;0.983;34.4;-56.96;-57.28
16;47.4733;19.0634166666667;113.5;0.04;0.095;0.008;1.025;34.4;-56.96;-57.28
16;47.4733;19.0634166666667;113.5;0.04;0.068;-0.003;1.017;34.4;-56.96;-57.28
16;47.4733;19.0634166666667;113.5;0.04;0.075;0.034;1.024;34.4;-56.96;-57.28
16;47.4733;19.0634166666667;113.5;0.04;0.107;-0.055;1.019;34.4;-56.96;-57.28
16;47.4733;19.0634166666667;113.5;0.04;0.081;0.047;0.975;34.4;-56.96;-57.28
16;47.4733;19.0634166666667;113.5;0.04;0.144;-0.069;1.029;34.56;-56.48;-57.76
16;47.4733;19.0634166666667;113.5;0.04;0.084;0.027;0.97;34.56;-56.48;-57.76
16;47.4733;19.0634166666667;113.5;0.04;0.132;0.027;1.034;34.56;-56.48;-57.76
16;47.4733;19.0634166666667;113.5;0.04;0.064;-0.032;0.961;34.56;-56.48;-57.76
16;47.4733;19.0634166666667;113.5;0.04;0.112;0.05;1.036;34.56;-56.48;-57.76
16;47.4733;19.0634166666667;113.5;0.04;0.084;-0.006;0.969;34.56;-56.48;-57.76
17;47.4733;19.0634166666667;113.5;0.04;0.099;-0.008;1.024;34.56;-56.96;-58.88
17;47.4733;19.0634166666667;113.5;0.04;0.117;-0.064;1.01;34.56;-56.96;-58.88
17;47.4733;19.0634166666667;113.5;0.04;0.104;0.027;1;34.56;-56.96;-58.88
17;47.4733;19.0634166666667;113.5;0.04;0.142;-0.049;1.038;34.56;-56.96;-58.88
17;47.4733;19.0634166666667;113.5;0.04;0.055;0.02;0.985;34.56;-56.96;-58.88
17;47.4733;19.0634166666667;113.5;0.04;0.11;0.001;1.026;34.56;-56.96;-58.88
17;47.4733;19.0634166666667;113.5;0.04;0.063;-0.032;0.99;34.24;-56.48;-57.28
17;47.4733;19.0634166666667;113.5;0.04;0.096;0.037;1.023;34.24;-56.48;-57.28
17;47.4733;19.0634166666667;113.5;0.04;0.098;-0.029;1.008;34.24;-56.48;-57.28
17;47.4733;19.0634166666667;113.5;0.04;0.087;0.034;1.022;34.24;-56.48;-57.28
17;47.4733;19.0634166666667;113.5;0.04;0.123;-0.036;1.026;34.24;-56.48;-57.28
18;47.4733;19.0634166666667;113.5;0.04;0.124;0.016;1.012;33.6;-55.36;-59.04
19;47.4733;19.0634166666667;113.5;0.04;0.084;0.061;1.03;33.6;-55.36;-59.04
19;47.4733;19.0634166666667;113.5;0.04;0.084;-0.032;0.999;33.6;-55.36;-59.04
19;47.4733;19.0634166666667;113.5;0.04;0.084;0.042;1.032;33.6;-55.36;-59.04
19;47.4733;19.0634166666667;113.5;0.04;0.128;-0.046;1.028;33.6;-55.36;-59.04
19;47.4733;19.0634166666667;113.5;0.04;0.081;0.038;0.972;33.6;-55.36;-59.04
19;47.4733;19.0634166666667;113.5;0.04;0.118;0.001;1.025;33.92;-57.12;-59.36
19;47.4733;19.0634166666667;113.5;0.04;0.083;-0.033;0.987;33.92;-57.12;-59.36
19;47.4733;19.0634166666667;113.5;0.04;0.06;0.036;1.017;33.92;-57.12;-59.36
19;47.4733;19.0634166666667;113.5;0.04;0.111;-0.039;1.019;33.92;-57.12;-59.36
19;47.4733;19.0634166666667;113.5;0.04;0.086;0.027;1.007;33.92;-57.12;-59.36
19;47.4733;19.0634166666667;113.5;0.04;0.12;0.024;1.012;33.92;-57.12;-59.36
20;47.4733;19.0634166666667;113.5;0.02;0.108;0.034;1.03;35.36;-55.84;-58.24
20;47.4733;19.0634166666667;113.5;0.02;0.177;-0.065;0.979;35.36;-55.84;-58.24
20;47.4733;19.0634166666667;113.5;0.02;0.1;0.081;0.976;35.36;-55.84;-58.24
20;47.4733;19.0634166666667;113.5;0.02;0.056;0.024;1.031;35.52;-56.32;-57.76
20;47.4733;19.0634166666667;113.5;0.02;0.236;-0.094;1.005;35.52;-56.32;-57.76
20;47.4733;19.0634166666667;113.5;0.02;0.117;0.004;0.99;35.52;-56.32;-57.76
20;47.4733;19.0634166666667;113.5;0.02;0.055;0.008;1.065;35.52;-56.32;-57.76
20;47.4733;19.0634166666667;113.5;0.02;0.114;0.071;0.963;35.52;-56.32;-57.76
20;47.4733;19.0634166666667;113.5;0.02;0.193;-0.016;1.04;35.52;-56.32;-57.76
21;47.4733;19.0634166666667;113.5;0.02;0.1;0.007;1.057;34.4;-56.64;-58.56
21;47.4733;19.0634166666667;113.5;0.02;0.132;-0.016;0.979;34.4;-56.64;-58.56
22;47.4733;19.0634166666667;113.5;0.02;0.12;-0.037;1.04;34.4;-56.64;-58.56
22;47.4733;19.0634166666667;113.5;0.02;0.088;0.039;0.991;34.4;-56.64;-58.56
22;47.4733;19.0634166666667;113.5;0.02;0.165;-0.059;1.048;34.56;-57.76;-57.76
22;47.4733;19.0634166666667;113.5;0.02;0.098;0.029;0.968;34.56;-57.76;-57.76
22;47.4733;19.0634166666667;113.5;0.02;0.131;-0.011;1.019;34.56;-57.76;-57.76
22;47.4733;19.0634166666667;113.5;0.02;0.1;-0.015;0.966;34.56;-57.76;-57.76
22;47.4733;19.0634166666667;113.5;0.02;0.125;0.029;1.054;34.56;-57.76;-57.76
22;47.4733;19.0634166666667;113.5;0.02;0.088;-0.015;0.976;34.56;-57.76;-57.76
22;47.4733;19.0634166666667;113.5;0.02;0.151;0.036;1.033;34.72;-56.32;-58.24
22;47.4733;19.0634166666667;113.5;0.02;0.109;-0.016;0.977;34.72;-56.32;-58.24
23;47.4733;19.0634166666667;113.5;0.02;0.162;-0.018;0.996;33.44;-56.96;-56.8
23;47.4733;19.0634166666667;113.5;0.02;0.108;-0.017;1.024;33.44;-56.96;-56.8
23;47.4733;19.0634166666667;113.5;0.02;0.082;0.03;0.995;33.44;-56.96;-56.8
23;47.4733;19.0634166666667;113.5;0.02;0.139;0.008;1.017;33.44;-56.96;-56.8
23;47.4733;19.0634166666667;113.5;0.02;0.129;0.007;0.992;34.72;-56.32;-57.76
23;47.4733;19.0634166666667;113.5;0.02;0.095;-0.009;1.023;34.72;-56.32;-57.76
23;47.4733;19.0634166666667;113.5;0.02;0.098;0.003;1.001;34.72;-56.32;-57.76
23;47.4733;19.0634166666667;113.5;0.02;0.129;-0.001;1.009;34.72;-56.32;-57.76
23;47.4733;19.0634166666667;113.5;0.02;0.122;0.024;0.991;34.72;-56.32;-57.76
23;47.4733;19.0634166666667;113.5;0.02;0.121;-0.015;1.018;34.72;-56.32;-57.76
23;47.4733;19.0634166666667;113.5;0.02;0.106;0.012;1.009;34.24;-57.12;-58.24
24;47.4733;19.0634166666667;113.5;0.02;0.08;0.006;1.028;34.24;-57.12;-58.24
25;47.4733;19.0634166666667;113.5;0.02;0.186;0.002;1.02;33.44;-57.6;-57.76
25;47.4733;19.0634166666667;113.5;0.02;0.179;-0.009;1.003;34.4;-57.12;-56.96
25;47.4733;19.0634166666667;113.5;0.02;0.196;-0.017;1.019;34.4;-57.12;-56.96
25;47.4733;19.0634166666667;113.5;0.02;0.167;-0.008;1;34.4;-57.12;-56.96
25;47.4733;19.0634166666667;113.5;0.02;0.189;0.021;1.008;34.4;-57.12;-56.96
25;47.4733;19.0634166666667;113.5;0.02;0.18;-0.008;0.993;34.4;-57.12;-56.96
25;47.4733;19.0634166666667;113.5;0.02;0.2;0.033;0.992;34.4;-57.12;-56.96
25;47.4733;19.0634166666667;113.5;0.02;0.171;-0.013;0.999;32.96;-56.8;-58.08
25;47.4733;19.0634166666667;113.5;0.02;0.219;0.02;0.987;32.96;-56.8;-58.08
25;47.4733;19.0634166666667;113.5;0.02;0.192;-0.008;1.027;32.96;-56.8;-58.08
25;47.4733;19.0634166666667;113.5;0.02;0.195;-0.008;1.012;32.96;-56.8;-58.08
25;47.4733;19.0634166666667;113.5;0.02;0.172;-0.024;1.022;32.96;-56.8;-58.08
26;47.4733;19.0634166666667;113.5;0.14;0.164;0.032;0.993;34.24;-56.8;-57.76
26;47.4733;19.0634166666667;113.5;0.14;0.194;0.036;0.965;34.24;-56.8;-57.76
26;47.4733;19.0634166666667;113.5;0.14;0.199;-0.01;0.992;34.24;-56.8;-57.76
26;47.4733;19.0634166666667;113.5;0.14;0.219;0.018;0.998;34.24;-56.8;-57.76
26;47.4733;19.0634166666667;113.5;0.14;0.201;-0.023;1.002;34.24;-56.8;-57.76
26;47.4733;19.0634166666667;113.5;0.14;0.216;0.043;0.983;34.24;-56.8;-57.76
26;47.4733;19.0634166666667;113.5;0.14;0.202;-0.012;0.992;33.92;-56.64;-57.44
26;47.4733;19.0634166666667;113.5;0.14;0.226;0.044;0.975;33.92;-56.64;-57.44
27;47.4733;19.0634166666667;113.5;0.14;0.191;0.095;0.988;33.92;-56.64;-57.44
27;47.4733;19.0634166666667;113.5;0.14;0.176;0.04;1.012;33.92;-56.64;-57.44
28;47.4733;19.0634166666667;113.5;0.14;0.184;-0.013;1.043;33.12;-57.12;-57.92
28;47.4733;19.0634166666667;113.5;0.14;0.152;-0.007;1.031;33.12;-57.12;-57.92
28;47.4733;19.0634166666667;113.5;0.14;0.118;0.003;1.036;33.12;-57.12;-57.92
28;47.4733;19.0634166666667;113.5;0.14;0.164;-0.047;1.025;33.12;-57.12;-57.92
28;47.4733;19.0634166666667;113.5;0.14;0.135;0.031;1.028;33.12;-57.12;-57.92
28;47.4733;19.0634166666667;113.5;0.14;0.125;0.01;1.011;33.12;-57.12;-57.92
28;47.4733;19.0634166666667;113.5;0.14;0.176;0;1.003;34.56;-56.48;-56.64
28;47.4733;19.0634166666667;113.5;0.14;0.161;-0.019;1.023;34.56;-56.48;-56.64
28;47.4733;19.0634166666667;113.5;0.14;0.199;-0.057;0.979;34.56;-56.48;-56.64
28;47.4733;19.0634166666667;113.5;0.14;0.196;-0.024;0.964;34.56;-56.48;-56.64
28;47.4733;19.0634166666667;113.5;0.14;0.199;0.012;0.961;34.56;-56.48;-56.64
29;47.4733;19.0634166666667;113.5;0.14;0.186;0;1.069;33.44;-56.32;-56.32
29;47.4733;19.0634166666667;113.5;0.14;0.116;-0.014;1.051;33.44;-56.32;-56.32
29;47.4733;19.0634166666667;113.5;0.14;0.159;-0.032;1.032;33.28;-56.8;-56
29;47.4733;19.0634166666667;113.5;0.14;0.176;0.048;1.007;33.28;-56.8;-56
29;47.4733;19.0634166666667;113.5;0.14;0.164;0.019;1;33.28;-56.8;-56
29;47.4733;19.0634166666667;113.5;0.14;0.169;-0.042;0.954;33.28;-56.8;-56
29;47.4733;19.0634166666667;113.5;0.14;0.175;-0.026;0.951;33.28;-56.8;-56
29;47.4733;19.0634166666667;113.5;0.14;0.21;-0.028;0.967;33.28;-56.8;-56
29;47.4733;19.0634166666667;113.5;0.14;0.162;0.054;0.967;34.24;-56.32;-56.64
29;47.4733;19.0634166666667;113.5;0.14;0.166;0.01;0.951;34.24;-56.32;-56.64
29;47.4733;19.0634166666667;113.5;0.14;0.224;0.023;0.982;34.24;-56.32;-56.64
30;47.4733;19.0634166666667;113.5;0.14;0.209;0.022;1.01;34.24;-56.32;-56.64
30;47.4733;19.0634166666667;113.5;0.14;0.189;0.005;1.027;34.24;-56.32;-56.64
30;47.4733;19.0634166666667;113.5;0.14;0.216;-0.047;1.029;33.12;-57.44;-56.16
30;47.4733;19.0634166666667;113.5;0.14;0.166;0.019;1.037;33.12;-57.44;-56.16
30;47.4733;19.0634166666667;113.5;0.14;0.17;-0.039;1.031;33.12;-57.44;-56.16
30;47.4733;19.0634166666667;113.5;0.14;0.216;-0.064;0.995;33.12;-57.44;-56.16
30;47.4733;19.0634166666667;113.5;0.14;0.197;0.021;0.971;33.12;-57.44;-56.16
30;47.4733;19.0634166666667;113.5;0.14;0.17;0.003;0.972;33.12;-57.44;-56.16
30;47.4733;19.0634166666667;113.5;0.14;0.162;0.039;1.003;34.24;-58.4;-56
30;47.4733;19.0634166666667;113.5;0.14;0.188;0.003;0.957;34.24;-58.4;-56
31;47.4733;19.0634166666667;113.5;0.47;0.199;0.039;1.009;34.24;-58.4;-56
31;47.4733;19.0634166666667;113.5;0.47;0.215;0.033;1.009;34.24;-58.4;-56
31;47.4733;19.0634166666667;113.5;0.47;0.202;-0.041;1.024;34.24;-58.4;-56
32;47.4733;19.0634166666667;113.5;0.47;0.234;-0.032;0.987;34.08;-57.44;-55.84
32;47.4733;19.0634166666667;113.5;0.47;0.213;0;0.983;34.08;-57.44;-55.84
32;47.4733;19.0634166666667;113.5;0.47;0.167;-0.044;0.943;34.08;-57.44;-55.84
32;47.4733;19.0634166666667;113.5;0.47;0.188;0.024;1.022;34.08;-57.44;-55.84
32;47.4733;19.0634166666667;113.5;0.47;0.227;0.048;1.015;34.08;-57.44;-55.84
32;47.4733;19.0634166666667;113.5;0.47;0.224;-0.04;0.966;34.24;-58.72;-56.16
32;47.4733;19.0634166666667;113.5;0.47;0.227;-0.041;0.951;34.24;-58.72;-56.16
32;47.4733;19.0634166666667;113.5;0.47;0.232;0.135;1.012;34.24;-58.72;-56.16
32;47.4733;19.0634166666667;113.5;0.47;0.36;-0.054;1.008;34.24;-58.72;-56.16
32;47.4733;19.0634166666667;113.5;0.47;0.209;-0.002;0.988;34.24;-58.72;-56.16
32;47.4733;19.0634166666667;113.5;0.47;0.268;0.062;1.023;34.24;-58.72;-56.16
32;47.4733;19.0634166666667;113.5;0.47;0.328;-0.036;1.074;33.12;-59.36;-54.88
33;47.4733;19.0634166666667;113.5;0.47;0.124;0.038;1.016;32.64;-58.56;-53.12
34;47.4733;19.0634166666667;113.5;0.47;0.036;-0.055;0.957;32.8;-59.68;-53.92
34;47.4733;19.0634166666667;113.5;0.47;0.081;0.078;1.024;32.8;-59.68;-53.92
34;47.4733;19.0634166666667;113.5;0.47;0.047;-0.02;0.975;32.8;-59.68;-53.92
34;47.4733;19.0634166666667;113.5;0.47;0.097;-0.071;1.056;32.8;-59.68;-53.92
34;47.4733;19.0634166666667;113.5;0.47;0.129;-0.012;0.999;32.8;-59.68;-53.92
34;47.4733;19.0634166666667;113.5;0.47;0.184;0.039;1.044;34.56;-60.16;-53.44
34;47.4733;19.0634166666667;113.5;0.47;0.175;0.119;0.923;34.56;-60.16;-53.44
34;47.4733;19.0634166666667;113.5;0.47;0.149;0.085;0.967;34.56;-60.16;-53.44
34;47.4733;19.0634166666667;113.5;0.47;0.241;0.155;0.914;34.56;-60.16;-53.44
34;47.4733;19.0634166666667;113.5;0.47;0.279;0.179;0.965;34.56;-60.16;-53.44
34;47.4733;19.0634166666667;113.5;0.47;0.288;0.169;0.984;34.56;-60.16;-53.44
34;47.4733;19.0634166666667;113.5;0.47;0.346;0.102;1;33.44;-60.96;-52.8
35;47.4733;19.0634166666667;113.5;0.16;0.262;-0.027;1.053;33.44;-60.96;-52.8
35;47.4733;19.0634166666667;113.5;0.16;0.187;0.01;0.919;33.44;-60.96;-52.8
35;47.4733;19.0634166666667;113.5;0.16;0.218;-0.011;0.976;33.44;-60.96;-52.8
35;47.4733;19.0634166666667;113.5;0.16;0.17;0.178;0.931;33.44;-60.96;-52.8
35;47.4733;19.0634166666667;113.5;0.16;0.153;0.186;1.025;34.24;-60.48;-51.84
35;47.4733;19.0634166666667;113.5;0.16;0.184;0.089;1.009;34.24;-60.48;-51.84
35;47.4733;19.0634166666667;113.5;0.16;0.2;-0.035;1.039;34.24;-60.48;-51.84
35;47.4733;19.0634166666667;113.5;0.16;0.173;0.032;1.088;34.24;-60.48;-51.84
35;47.4733;19.0634166666667;113.5;0.16;0.18;-0.01;1.016;34.24;-60.48;-51.84
35;47.4733;19.0634166666667;113.5;0.16;0.145;0.04;0.953;34.24;-60.48;-51.84
36;47.4733;19.0634166666667;113.5;0.16;0.133;0.172;1.003;34.4;-61.12;-51.84
36;47.4733;19.0634166666667;113.5;0.16;0.116;0.054;0.961;34.4;-61.12;-51.84
36;47.4733;19.0634166666667;113.5;0.16;0.199;0.008;1.014;34.4;-61.12;-51.84
36;47.4733;19.0634166666667;113.5;0.16;0.131;0.06;0.987;34.4;-61.12;-51.84
36;47.4733;19.0634166666667;113.5;0.16;0.119;-0.033;1.03;34.4;-61.12;-51.84
36;47.4733;19.0634166666667;113.5;0.16;0.258;-0.12;0.997;34.08;-61.92;-52.48
36;47.4733;19.0634166666667;113.5;0.16;0.129;0.023;0.983;34.08;-61.92;-52.48
36;47.4733;19.0634166666667;113.5;0.16;0.099;0.085;1.009;34.08;-61.92;-52.48
36;47.4733;19.0634166666667;113.5;0.16;0.155;0.161;0.919;34.08;-61.92;-52.48
36;47.4733;19.0634166666667;113.5;0.16;0.184;0.096;1.046;34.08;-61.92;-52.48
36;47.4733;19.0634166666667;113.5;0.16;0.241;0.141;0.997;34.08;-61.92;-52.48
36;47.4733;19.0634166666667;113.5;0.16;0.234;0.039;1.04;34.4;-62.72;-51.52
36;47.4733;19.0634166666667;113.5;0.16;0.129;0.031;1.071;34.4;-62.72;-51.52
37;47.4733;19.0634166666667;113.5;0.16;0.032;0.084;0.994;33.76;-64.48;-49.92
38;47.4733;19.0634166666667;113.5;0.16;0.099;-0.033;0.948;33.76;-64.48;-49.92
38;47.4733;19.0634166666667;113.5;0.16;0.073;0.135;0.991;33.76;-64.48;-49.92
38;47.4733;19.0634166666667;113.5;0.16;0.069;0.042;1.021;33.76;-64.48;-49.92
38;47.4733;19.0634166666667;113.5;0.16;0.139;0.084;1.009;32.64;-65.12;-49.92
38;47.4733;19.0634166666667;113.5;0.16;0.139;-0.033;1.009;32.64;-65.12;-49.92
38;47.4733;19.0634166666667;113.5;0.16;0.152;-0.01;1.083;32.64;-65.12;-49.92
38;47.4733;19.0634166666667;113.5;0.16;0.121;-0.004;1.082;32.64;-65.12;-49.92
38;47.4733;19.0634166666667;113.5;0.16;0.128;0.03;1.105;32.64;-65.12;-49.92
38;47.4733;19.0634166666667;113.5;0.16;0.116;0.069;1.027;32.64;-65.12;-49.92
38;47.4733;19.0634166666667;113.5;0.16;0.128;0.191;1.03;31.84;-64.96;-48.96
38;47.4733;19.0634166666667;113.5;0.16;0.09;0.232;0.992;31.84;-64.96;-48.96
39;47.4733;19.0634166666667;113.5;1.44;0.168;0.24;0.978;31.84;-64.96;-48.96
39;47.4733;19.0634166666667;113.5;1.44;0.152;0.221;1.037;31.84;-64.96;-48.96
39;47.4733;19.0634166666667;113.5;1.44;0.178;0.23;0.928;31.84;-64.96;-48.96
39;47.4733;19.0634166666667;113.5;1.44;0.244;0.168;0.976;30.56;-66.88;-48
39;47.4733;19.0634166666667;113.5;1.44;0.153;0.087;0.974;30.56;-66.88;-48
39;47.4733;19.0634166666667;113.5;1.44;0.259;-0.081;1.022;30.56;-66.88;-48
39;47.4733;19.0634166666667;113.5;1.44;0.268;-0.052;1.092;30.56;-66.88;-48
39;47.4733;19.0634166666667;113.5;1.44;0.245;0.035;1.07;30.56;-66.88;-48
39;47.4733;19.0634166666667;113.5;1.44;0.148;0.204;0.976;30.56;-66.88;-48
39;47.4733;19.0634166666667;113.5;1.44;0.191;0.004;1.066;30.72;-65.92;-46.56
40;47.4733;19.0634166666667;113.5;1.44;0.193;-0.012;1.141;30.72;-65.92;-46.56
41;47.4733;19.0634166666667;113.5;1.44;0.159;0.102;1.055;30.72;-65.92;-46.56
41;47.4733;19.0634166666667;113.5;1.44;0.092;0.072;0.976;30.72;-65.92;-46.56
41;47.4733;19.0634166666667;113.5;1.44;0.089;0.114;0.978;31.52;-66.72;-46.24
41;47.4733;19.0634166666667;113.5;1.44;0.088;0.084;0.956;31.52;-66.72;-46.24
41;47.4733;19.0634166666667;113.5;1.44;0.065;0.017;0.992;31.52;-66.72;-46.24
41;47.4733;19.0634166666667;113.5;1.44;0.108;0.086;1.041;31.52;-66.72;-46.24
41;47.4733;19.0634166666667;113.5;1.44;0.088;0.073;1.033;31.52;-66.72;-46.24
41;47.4733;19.0634166666667;113.5;1.44;0.101;0.002;1.064;31.52;-66.72;-46.24
41;47.4733;19.0634166666667;113.5;1.44;0.086;0.085;0.951;30.56;-65.44;-44.96
41;47.4733;19.0634166666667;113.5;1.44;0.088;0.08;0.967;30.56;-65.44;-44.96
41;47.4733;19.0634166666667;113.5;1.44;0.039;0.18;0.968;30.56;-65.44;-44.96
42;47.4733;19.0634;113.4;3.35;0.137;-0.025;1.01;32.16;-66.24;-44.16
42;47.4733;19.0634;113.4;3.35;0.095;0.048;1.003;32.16;-66.24;-44.16
43;47.4733;19.0634;113.4;3.35;0.101;-0.032;1.036;32.16;-66.24;-44.16
43;47.4733;19.0634;113.4;3.35;0.196;0.126;1.036;33.28;-65.6;-44.96
43;47.4733;19.0634;113.4;3.35;0.212;-0.041;1.078;33.28;-65.6;-44.96
43;47.4733;19.0634;113.4;3.35;0.208;0.072;1;33.28;-65.6;-44.96
43;47.4733;19.0634;113.4;3.35;0.196;0.028;0.984;33.28;-65.6;-44.96
43;47.4733;19.0634;113.4;3.35;0.162;-0.064;0.913;33.28;-65.6;-44.96
43;47.4733;19.0634;113.4;3.35;0.104;0.004;0.972;33.28;-65.6;-44.96
43;47.4733;19.0634;113.4;3.35;0.086;0.099;0.978;34.4;-65.6;-45.28
43;47.4733;19.0634;113.4;3.35;0.071;0.028;1.02;34.4;-65.6;-45.28
43;47.4733;19.0634;113.4;3.35;0.063;0.059;1.041;34.4;-65.6;-45.28
44;47.4733;19.0634;113.4;3.35;0.067;0.015;1.065;34.4;-65.6;-45.28
44;47.4733;19.0634;113.4;3.35;0.101;-0.044;1.024;34.4;-65.6;-45.28
44;47.4733;19.0634;113.4;3.35;0.151;0.005;1.017;33.76;-64.32;-45.28
44;47.4733;19.0634;113.4;3.35;0.206;0.032;1.079;33.76;-64.32;-45.28
44;47.4733;19.0634;113.4;3.35;0.245;0.05;1.016;33.76;-64.32;-45.28
44;47.4733;19.0634;113.4;3.35;0.183;-0.035;1.009;33.76;-64.32;-45.28
44;47.4733;19.0634;113.4;3.35;0.241;-0.048;0.941;33.76;-64.32;-45.28
44;47.4733;19.0634;113.4;3.35;0.218;0;0.942;33.76;-64.32;-45.28
44;47.4733;19.0634;113.4;3.35;0.209;0.116;1.08;33.6;-64;-45.28
44;47.4733;19.0634;113.4;3.35;0.124;0.065;1.018;33.6;-64;-45.28
45;47.4733;19.0634;113.4;3.35;0.064;-0.028;1.041;33.6;-64;-45.28
46;47.4733333333333;19.0633833333333;113.4;10.31;0.026;0.184;1.01;36;-63.36;-46.08
46;47.4733333333333;19.0633833333333;113.4;10.31;-0.003;0.018;1.012;36;-63.36;-46.08
46;47.4733333333333;19.0633833333333;113.4;10.31;0.108;0.009;0.918;36;-63.36;-46.08
46;47.4733333333333;19.0633833333333;113.4;10.31;0.191;-0.196;0.969;36;-63.36;-46.08
46;47.4733333333333;19.0633833333333;113.4;10.31;0.298;0.069;0.993;36;-63.36;-46.08
46;47.4733333333333;19.0633833333333;113.4;10.31;0.253;-0.012;1.027;37.28;-62.08;-45.44
46;47.4733333333333;19.0633833333333;113.4;10.31;0.167;0.089;1.032;37.28;-62.08;-45.44
46;47.4733333333333;19.0633833333333;113.4;10.31;0.081;-0.043;1.017;37.28;-62.08;-45.44
47;47.4733333333333;19.0633833333333;113.4;10.31;0.172;-0.078;1.036;37.28;-62.08;-45.44
48;47.4733333333333;19.0633833333333;113.4;10.31;0.288;0.05;1.008;37.28;-62.08;-45.44
48;47.4733333333333;19.0633833333333;113.4;10.31;0.263;0.066;1.022;39.2;-60.8;-45.76
48;47.4733333333333;19.0633833333333;113.4;10.31;0.145;0.16;1;39.2;-60.8;-45.76
48;47.4733333333333;19.0633833333333;113.4;10.31;0.027;-0.024;1.04;39.2;-60.8;-45.76
48;47.4733333333333;19.0633833333333;113.4;10.31;0.001;-0.03;0.967;39.2;-60.8;-45.76
48;47.4733333333333;19.0633833333333;113.4;10.31;0.043;-0.232;0.976;39.2;-60.8;-45.76
48;47.4733333333333;19.0633833333333;113.4;10.31;0.138;-0.185;0.944;39.2;-60.8;-45.76
48;47.4733333333333;19.0633833333333;113.4;10.31;0.177;-0.182;0.948;39.52;-59.04;-46.4
48;47.4733333333333;19.0633833333333;113.4;10.31;0.209;0.01;0.928;39.52;-59.04;-46.4
48;47.4733333333333;19.0633833333333;113.4;10.31;0.02;-0.033;0.999;39.52;-59.04;-46.4
48;47.4733333333333;19.0633833333333;113.4;10.31;-0.069;-0.059;1.01;39.52;-59.04;-46.4
48;47.4733333333333;19.0633833333333;113.4;10.31;0.049;-0.078;1.046;39.52;-59.04;-46.4
49;47.4733333333333;19.0633833333333;113.4;10.31;0.176;0.105;1.044;40.96;-58.4;-49.44
49;47.4733333333333;19.0633833333333;113.4;10.31;0.091;0.054;1.022;40.96;-58.4;-49.44
49;47.4733333333333;19.0633833333333;113.4;10.31;-0.024;-0.003;0.982;40.96;-58.4;-49.44
49;47.4733333333333;19.0633833333333;113.4;10.31;0.107;-0.087;0.964;40.96;-58.4;-49.44
49;47.4733333333333;19.0633833333333;113.4;10.31;0.146;-0.131;1.001;40.96;-58.4;-49.44
49;47.4733333333333;19.0633833333333;113.4;10.31;0.175;0.035;0.997;40.96;-58.4;-49.44
49;47.4733333333333;19.0633833333333;113.4;10.31;0.027;0.126;1.008;41.12;-58.08;-50.24
49;47.4733333333333;19.0633833333333;113.4;10.31;0.017;0.064;0.977;41.12;-58.08;-50.24
49;47.4733333333333;19.0633833333333;113.4;10.31;0.019;-0.057;0.989;41.12;-58.08;-50.24
49;47.4733333333333;19.0633833333333;113.4;10.31;0.145;-0.06;0.961;41.12;-58.08;-50.24
50;47.4733666666667;19.0633666666667;113.3;10.31;0.105;0.049;1.013;41.12;-58.08;-50.24
50;47.4733666666667;19.0633666666667;113.3;10.31;-0.009;0.103;1.051;40.8;-59.36;-50.24
51;47.4733666666667;19.0633666666667;113.3;12.28;0.304;-0.141;0.996;40.8;-59.36;-50.24
51;47.4733666666667;19.0633666666667;113.3;12.28;0.193;0.101;1.066;40.8;-59.36;-50.24
51;47.4733666666667;19.0633666666667;113.3;12.28;-0.004;0.09;1.08;40.8;-59.36;-50.24
51;47.4733666666667;19.0633666666667;113.3;12.28;0.02;-0.027;1.023;40.8;-59.36;-50.24
51;47.4733666666667;19.0633666666667;113.3;12.28;0.221;-0.172;0.967;41.76;-57.28;-50.72
51;47.4733666666667;19.0633666666667;113.3;12.28;0.264;-0.044;0.973;41.76;-57.28;-50.72
51;47.4733666666667;19.0633666666667;113.3;12.28;0.094;0.041;1.01;41.76;-57.28;-50.72
51;47.4733666666667;19.0633666666667;113.3;12.28;-0.012;0.053;1.026;41.76;-57.28;-50.72
51;47.4733666666667;19.0633666666667;113.3;12.28;0.099;-0.206;1.008;41.76;-57.28;-50.72
51;47.4733666666667;19.0633666666667;113.3;12.28;0.258;-0.119;1.018;41.76;-57.28;-50.72
51;47.4733666666667;19.0633666666667;113.3;12.28;0.133;-0.029;1.014;41.44;-56.64;-52
52;47.4733666666667;19.0633666666667;113.3;12.28;0.225;-0.134;1.037;39.52;-57.44;-53.92
53;47.4733666666667;19.0633666666667;113.3;12.28;0.001;-0.002;0.997;39.52;-57.44;-53.92
53;47.4733666666667;19.0633666666667;113.3;12.28;0.168;-0.233;0.967;39.52;-57.44;-53.92
53;47.4733666666667;19.0633666666667;113.3;12.28;0.246;-0.018;0.943;39.52;-57.44;-53.92
53;47.4733666666667;19.0633666666667;113.3;12.28;-0.025;0.152;1.047;39.52;-57.44;-53.92
53;47.4733666666667;19.0633666666667;113.3;12.28;0.005;-0.125;0.989;39.52;-56.96;-53.6
53;47.4733666666667;19.0633666666667;113.3;12.28;0.184;-0.032;0.994;39.52;-56.96;-53.6
53;47.4733666666667;19.0633666666667;113.3;12.28;0.164;-0.025;0.994;39.52;-56.96;-53.6
53;47.4733666666667;19.0633666666667;113.3;12.28;0.011;0.111;1.025;39.52;-56.96;-53.6
53;47.4733666666667;19.0633666666667;113.3;12.28;0.143;-0.175;0.976;39.52;-56.96;-53.6
54;47.4733833333333;19.06335;113.3;12.28;0.034;0.09;1.068;39.2;-56.8;-54.08
54;47.4733833333333;19.06335;113.3;12.28;0.037;-0.061;1.009;39.2;-56.8;-54.08
55;47.4733833333333;19.06335;113.3;13.19;0.152;0.011;0.945;39.2;-56.8;-54.08
55;47.4733833333333;19.06335;113.3;13.19;-0.016;0.095;0.992;39.2;-56.8;-54.08
55;47.4733833333333;19.06335;113.3;13.19;0.112;-0.061;0.984;39.2;-56.8;-54.08
55;47.4733833333333;19.06335;113.3;13.19;0.232;-0.083;0.966;40.48;-56.16;-51.68
55;47.4733833333333;19.06335;113.3;13.19;0.096;0.148;1.051;40.48;-56.16;-51.68
55;47.4733833333333;19.06335;113.3;13.19;0.008;0.075;1.044;40.48;-56.16;-51.68
55;47.4733833333333;19.06335;113.3;13.19;0.167;-0.223;0.972;40.48;-56.16;-51.68
55;47.4733833333333;19.06335;113.3;13.19;0.145;0.098;1.011;40.48;-56.16;-51.68
55;47.4733833333333;19.06335;113.3;13.19;0.027;0.099;1.037;40.48;-56.16;-51.68
55;47.4733833333333;19.06335;113.3;13.19;0.104;-0.081;0.956;39.84;-56.64;-53.6
56;47.4733833333333;19.06335;113.3;13.19;0.095;0.116;1.037;39.84;-56.64;-53.6
56;47.4733833333333;19.06335;113.3;13.19;0.029;0.013;1.085;39.84;-56.64;-53.6
56;47.4733833333333;19.06335;113.3;13.19;0.303;-0.191;0.994;39.84;-56.64;-53.6
56;47.4733833333333;19.06335;113.3;13.19;0.168;-0.014;0.999;39.84;-56.64;-53.6
56;47.4733833333333;19.06335;113.3;13.19;0.061;0.118;1.073;40.48;-55.68;-53.76
56;47.4733833333333;19.06335;113.3;13.19;0.125;-0.276;0.982;40.48;-55.68;-53.76
56;47.4733833333333;19.06335;113.3;13.19;0.192;-0.081;1.009;40.48;-55.68;-53.76
56;47.4733833333333;19.06335;113.3;13.19;-0.046;0.136;1.067;40.48;-55.68;-53.76
56;47.4733833333333;19.06335;113.3;13.19;0.015;-0.071;1.024;40.48;-55.68;-53.76
56;47.4733833333333;19.06335;113.3;13.19;0.13;-0.159;0.976;40.48;-55.68;-53.76
56;47.4733833333333;19.06335;113.3;13.19;0.02;0.08;1.012;41.76;-54.88;-54.56
56;47.4733833333333;19.06335;113.3;13.19;0.102;-0.001;1.051;41.76;-54.88;-54.56
56;47.4733833333333;19.06335;113.3;13.19;0.201;-0.221;1.008;41.76;-54.88;-54.56
57;47.4733833333333;19.06335;113.3;13.19;0.077;0.02;1.042;42.72;-54.24;-54.4
57;47.4733833333333;19.06335;113.3;13.19;0.057;-0.029;0.96;42.72;-54.24;-54.4
57;47.4733833333333;19.06335;113.3;13.19;0.246;-0.116;1.002;42.72;-54.24;-54.4
57;47.4733833333333;19.06335;113.3;13.19;0.148;0.091;0.925;42.4;-54.4;-54.72
57;47.4733833333333;19.06335;113.3;13.19;0.031;0.09;1.09;42.4;-54.4;-54.72
57;47.4733833333333;19.06335;113.3;13.19;0.095;0.059;0.99;42.4;-54.4;-54.72
57;47.4733833333333;19.06335;113.3;13.19;0.166;-0.085;0.978;42.4;-54.4;-54.72
57;47.4733833333333;19.06335;113.3;13.19;0.005;0.167;1.068;42.4;-54.4;-54.72
57;47.4733833333333;19.06335;113.3;13.19;0.089;-0.125;0.955;42.4;-54.4;-54.72
57;47.4733833333333;19.06335;113.3;13.19;0.164;-0.117;1.023;43.36;-53.6;-56.32
58;47.4734166666667;19.0633333333333;113.3;13.19;0.136;-0.127;1.009;43.36;-53.6;-56.32
59;47.4734166666667;19.0633333333333;113.3;13.19;0.157;-0.17;0.936;43.68;-53.92;-58.08
60;47.4734166666667;19.0633333333333;113.3;14.11;0.116;-0.146;0.953;44.8;-55.04;-60.64
60;47.4734166666667;19.0633333333333;113.3;14.11;0.021;0.127;1.013;44.8;-55.04;-60.64
60;47.4734166666667;19.0633333333333;113.3;14.11;0.097;-0.001;1.033;44.8;-55.04;-60.64
60;47.4734166666667;19.0633333333333;113.3;14.11;0.171;-0.083;0.993;44.8;-55.04;-60.64
60;47.4734166666667;19.0633333333333;113.3;14.11;0.029;0.148;1.078;44.8;-55.04;-60.64
60;47.4734166666667;19.0633333333333;113.3;14.11;0.129;-0.042;1.048;44.8;-55.04;-60.64
60;47.4734166666667;19.0633333333333;113.3;14.11;0.136;-0.009;0.96;45.76;-56.32;-61.6
60;47.4734166666667;19.0633333333333;113.3;14.11;-0.018;0.107;0.98;45.76;-56.32;-61.6
60;47.4734166666667;19.0633333333333;113.3;14.11;0.156;-0.039;1.006;45.76;-56.32;-61.6
61;47.4734166666667;19.0633333333333;113.3;14.11;0.043;0.083;1.076;45.76;-56.32;-61.6
61;47.4734166666667;19.0633333333333;113.3;14.11;0.171;0.009;1.033;45.76;-56.32;-61.6
61;47.4734166666667;19.0633333333333;113.3;14.11;0.119;-0.111;0.957;45.6;-55.52;-63.36
61;47.4734166666667;19.0633333333333;113.3;14.11;0.073;0.121;1.036;45.6;-55.52;-63.36
61;47.4734166666667;19.0633333333333;113.3;14.11;0.16;-0.151;0.969;45.6;-55.52;-63.36
61;47.4734166666667;19.0633333333333;113.3;14.11;0.126;-0.105;0.947;45.6;-55.52;-63.36
61;47.4734166666667;19.0633333333333;113.3;14.11;0.011;0.065;0.998;45.6;-55.52;-63.36
61;47.4734166666667;19.0633333333333;113.3;14.11;0.135;-0.066;0.973;45.6;-55.52;-63.36
61;47.4734166666667;19.0633333333333;113.3;14.11;0.047;0.125;1.006;45.44;-56.48;-61.6
61;47.4734166666667;19.0633333333333;113.3;14.11;0.045;0.01;1.039;45.44;-56.48;-61.6
61;47.4734166666667;19.0633333333333;113.3;14.11;0.2;0.016;0.979;45.44;-56.48;-61.6
62;47.4734666666667;19.0633166666667;113.3;14.74;0.139;0.032;1.047;45.44;-56.48;-61.6
62;47.4734666666667;19.0633166666667;113.3;14.74;0.184;-0.097;0.989;45.44;-56.48;-61.6
62;47.4734666666667;19.0633166666667;113.3;14.74;0.034;0.106;1.012;46.4;-56.96;-64
62;47.4734666666667;19.0633166666667;113.3;14.74;0.024;0.135;1.037;46.4;-56.96;-64
62;47.4734666666667;19.0633166666667;113.3;14.74;0.155;-0.077;0.966;46.4;-56.96;-64
62;47.4734666666667;19.0633166666667;113.3;14.74;0.06;0.021;0.996;46.4;-56.96;-64
62;47.4734666666667;19.0633166666667;113.3;14.74;0.114;0.021;0.982;46.4;-56.96;-64
62;47.4734666666667;19.0633166666667;113.3;14.74;0.23;-0.124;0.982;46.4;-56.96;-64
62;47.4734666666667;19.0633166666667;113.3;14.74;-0.025;-0.098;1.053;45.6;-56.64;-64.32
62;47.4734666666667;19.0633166666667;113.3;14.74;0.135;0.116;1.102;45.6;-56.64;-64.32
62;47.4734666666667;19.0633166666667;113.3;14.74;0.132;-0.005;0.974;45.6;-56.64;-64.32
62;47.4734666666667;19.0633166666667;113.3;14.74;-0.048;0.031;1.069;45.6;-56.64;-64.32
62;47.4734666666667;19.0633166666667;113.3;14.74;0.09;0.022;1.02;45.6;-56.64;-64.32
63;47.4734666666667;19.0633166666667;113.3;14.74;0.091;0.012;0.972;43.68;-56.48;-66.4
64;47.4734666666667;19.0633166666667;113.3;14.74;0.038;0.06;0.979;42.08;-55.36;-66.4
65;47.4734666666667;19.0633166666667;113.3;14.74;0.3;-0.123;0.989;42.88;-55.68;-67.52
65;47.4734666666667;19.0633166666667;113.3;14.74;0.105;0.215;1.024;42.88;-55.68;-67.52
65;47.4734666666667;19.0633166666667;113.3;14.74;0.002;0.07;1.061;42.88;-55.68;-67.52
65;47.4734666666667;19.0633166666667;113.3;14.74;0.134;-0.117;0.962;42.88;-55.68;-67.52
65;47.4734666666667;19.0633166666667;113.3;14.74;0.13;0.054;1.04;42.88;-55.68;-67.52
65;47.4734666666667;19.0633166666667;113.3;14.74;-0.046;0.144;1.066;42.88;-55.68;-67.52
65;47.4734666666667;19.0633166666667;113.3;14.74;-0.008;-0.088;0.99;40.96;-55.04;-66.88
65;47.4734666666667;19.0633166666667;113.3;14.74;0.17;-0.034;1.037;40.96;-55.04;-66.88
65;47.4734666666667;19.0633166666667;113.3;14.74;-0.102;0.213;1.078;40.96;-55.04;-66.88
66;47.4735;19.0633;113.3;14.54;0.192;-0.207;0.99;41.12;-55.2;-66.72
66;47.4735;19.0633;113.3;14.54;0.035;0.103;1.072;41.12;-55.2;-66.72
66;47.4735;19.0633;113.3;14.54;-0.016;0.051;1.04;41.12;-55.2;-66.72
66;47.4735;19.0633;113.3;14.54;0.131;-0.121;0.997;41.12;-55.2;-66.72
66;47.4735;19.0633;113.3;14.54;0.154;-0.076;0.971;40.48;-52.96;-66.4
66;47.4735;19.0633;113.3;14.54;-0.065;0.159;1.01;40.48;-52.96;-66.4
66;47.4735;19.0633;113.3;14.54;0.001;-0.112;0.956;40.48;-52.96;-66.4
66;47.4735;19.0633;113.3;14.54;0.163;-0.145;0.905;40.48;-52.96;-66.4
66;47.4735;19.0633;113.3;14.54;0.016;-0.017;1.04;40.48;-52.96;-66.4
66;47.4735;19.0633;113.3;14.54;-0.031;0.019;0.947;40.48;-52.96;-66.4
67;47.4735;19.0633;113.3;14.54;0.125;0.113;1.008;39.52;-53.12;-66.72
67;47.4735;19.0633;113.3;14.54;-0.034;0.103;1.024;39.52;-53.12;-66.72
67;47.4735;19.0633;113.3;14.54;0.168;-0.118;0.977;39.52;-53.12;-66.72
67;47.4735;19.0633;113.3;14.54;0.159;-0.035;0.938;39.52;-53.12;-66.72
67;47.4735;19.0633;113.3;14.54;-0.033;0.164;1.062;39.52;-53.12;-66.72
67;47.4735;19.0633;113.3;14.54;0.028;0.015;0.97;39.52;-53.12;-66.72
67;47.4735;19.0633;113.3;14.54;0.16;-0.191;0.935;39.52;-51.68;-66.08
67;47.4735;19.0633;113.3;14.54;0.043;0.143;0.929;39.52;-51.68;-66.08
67;47.4735;19.0633;113.3;14.54;-0.025;0.047;1.033;39.52;-51.68;-66.08
67;47.4735;19.0633;113.3;14.54;-0.006;-0.067;0.941;39.52;-51.68;-66.08
68;47.4735;19.0633;113.3;14.54;0.129;0.135;1.105;38.56;-51.2;-66.4
68;47.4735;19.0633;113.3;14.54;0.015;0.007;1.131;38.56;-51.2;-66.4
68;47.4735;19.0633;113.3;14.54;0.014;-0.08;1.043;38.56;-51.2;-66.4
68;47.4735;19.0633;113.3;14.54;0.193;-0.149;0.985;38.08;-50.24;-65.28
68;47.4735;19.0633;113.3;14.54;0.175;-0.003;0.996;38.08;-50.24;-65.28
68;47.4735;19.0633;113.3;14.54;-0.067;0.09;1.037;38.08;-50.24;-65.28
68;47.4735;19.0633;113.3;14.54;-0.073;-0.088;1.013;38.08;-50.24;-65.28
68;47.4735;19.0633;113.3;14.54;0.175;-0.151;0.946;38.08;-50.24;-65.28
68;47.4735;19.0633;113.3;14.54;0.061;0.067;1.004;38.08;-50.24;-65.28
69;47.4735;19.0633;113.3;14.54;0.008;-0.106;1.003;38.24;-50.88;-64.8
69;47.4735;19.0633;113.3;14.54;0.223;-0.048;0.893;38.24;-50.88;-64.8
69;47.4735;19.0633;113.3;14.54;0.057;0.175;1.001;38.24;-50.88;-64.8
69;47.4735;19.0633;113.3;14.54;-0.053;0.105;1.013;38.24;-50.88;-64.8
69;47.4735;19.0633;113.3;14.54;-0.009;-0.024;1.01;38.24;-50.88;-64.8
69;47.4735;19.0633;113.3;14.54;0.194;-0.193;0.954;36.96;-49.92;-63.68
69;47.4735;19.0633;113.3;14.54;0.143;0.024;0.964;36.96;-49.92;-63.68
69;47.4735;19.0633;113.3;14.54;0.037;0.146;0.993;36.96;-49.92;-63.68
69;47.4735;19.0633;113.3;14.54;-0.161;0.161;1.015;36.96;-49.92;-63.68
69;47.4735;19.0633;113.3;14.54;0.06;-0.059;0.996;36.96;-49.92;-63.68
70;47.4735;19.0633;113.3;14.54;0.15;0.017;1.038;38.08;-50.56;-63.68
70;47.4735;19.0633;113.3;14.54;-0.029;0.114;1.032;38.08;-50.56;-63.68
71;47.4735333333333;19.0632833333333;113.3;14.06;-0.111;0.034;1.013;37.12;-50.08;-63.04
71;47.4735333333333;19.0632833333333;113.3;14.06;0.027;-0.099;0.955;37.12;-50.08;-63.04
71;47.4735333333333;19.0632833333333;113.3;14.06;0.176;-0.151;0.96;36.96;-50.56;-62.08
71;47.4735333333333;19.0632833333333;113.3;14.06;0.142;0.023;0.947;36.96;-50.56;-62.08
71;47.4735333333333;19.0632833333333;113.3;14.06;-0.025;0.154;1.028;36.96;-50.56;-62.08
71;47.4735333333333;19.0632833333333;113.3;14.06;-0.057;0.081;1.021;36.96;-50.56;-62.08
71;47.4735333333333;19.0632833333333;113.3;14.06;0.079;-0.048;1.001;36.96;-50.56;-62.08
71;47.4735333333333;19.0632833333333;113.3;14.06;0.302;-0.048;0.996;36.96;-50.56;-62.08
71;47.4735333333333;19.0632833333333;113.3;14.06;0.173;0.171;1.014;36.64;-50.08;-62.24
72;47.4735333333333;19.0632833333333;113.3;14.06;-0.002;0.105;1.019;36.64;-50.08;-62.24
73;47.4735333333333;19.0632833333333;113.3;14.06;0.319;-0.085;0.905;36.64;-50.08;-62.24
73;47.4735333333333;19.0632833333333;113.3;14.06;0.247;-0.089;0.988;36.64;-50.08;-62.24
73;47.4735333333333;19.0632833333333;113.3;14.06;0.016;0.053;1.007;35.84;-50.08;-61.6
73;47.4735333333333;19.0632833333333;113.3;14.06;-0.128;0.101;1.064;35.84;-50.08;-61.6
73;47.4735333333333;19.0632833333333;113.3;14.06;-0.072;-0.089;1.028;35.84;-50.08;-61.6
73;47.4735333333333;19.0632833333333;113.3;14.06;0.137;-0.123;0.977;35.84;-50.08;-61.6
73;47.4735333333333;19.0632833333333;113.3;14.06;0.178;-0.079;1.029;35.84;-50.08;-61.6
73;47.4735333333333;19.0632833333333;113.3;14.06;0.025;0.082;1.058;35.84;-50.08;-61.6
73;47.4735333333333;19.0632833333333;113.3;14.06;-0.172;0.088;1.061;37.12;-51.04;-60.64
73;47.4735333333333;19.0632833333333;113.3;14.06;-0.141;0.057;1.079;37.12;-51.04;-60.64
73;47.4735333333333;19.0632833333333;113.3;14.06;0.02;-0.048;1.028;37.12;-51.04;-60.64
74;47.4735666666667;19.0632666666667;113.4;13.14;0.005;0.158;0.961;35.84;-51.84;-57.12
74;47.4735666666667;19.0632666666667;113.4;13.14;-0.055;0.097;1.066;35.84;-51.84;-57.12
74;47.4735666666667;19.0632666666667;113.4;13.14;-0.02;-0.011;0.969;35.84;-51.84;-57.12
74;47.4735666666667;19.0632666666667;113.4;13.14;0.164;-0.116;0.977;35.84;-51.84;-57.12
74;47.4735666666667;19.0632666666667;113.4;13.14;0.216;-0.04;0.936;35.84;-51.84;-57.12
74;47.4735666666667;19.0632666666667;113.4;13.14;0.095;0.035;0.959;35.84;-51.84;-57.12
74;47.4735666666667;19.0632666666667;113.4;13.14;-0.037;0.147;0.92;36;-52;-58.24
74;47.4735666666667;19.0632666666667;113.4;13.14;-0.128;0.085;0.902;36;-52;-58.24
74;47.4735666666667;19.0632666666667;113.4;13.14;-0.141;0.018;0.935;36;-52;-58.24
75;47.4735666666667;19.0632666666667;113.4;13.14;0.088;-0.203;0.974;36;-52;-58.24
75;47.4735666666667;19.0632666666667;113.4;13.14;0.29;-0.099;1.023;36;-52;-58.24
75;47.4735666666667;19.0632666666667;113.4;13.14;0.215;-0.024;1.129;35.68;-51.84;-56.64
75;47.4735666666667;19.0632666666667;113.4;13.14;0.193;0.113;1.16;35.68;-51.84;-56.64
75;47.4735666666667;19.0632666666667;113.4;13.14;0.067;0.036;1.125;35.68;-51.84;-56.64
75;47.4735666666667;19.0632666666667;113.4;13.14;0.057;0.074;1.184;35.68;-51.84;-56.64
75;47.4735666666667;19.0632666666667;113.4;13.14;0.183;0;1.12;35.68;-51.84;-56.64
75;47.4735666666667;19.0632666666667;113.4;13.14;0.33;-0.122;1.077;35.68;-51.84;-56.64
75;47.4735666666667;19.0632666666667;113.4;13.14;0.311;-0.054;1.05;35.52;-52.32;-56.32
75;47.4735666666667;19.0632666666667;113.4;13.14;0.208;0.032;1.032;35.52;-52.32;-56.32
76;47.4735666666667;19.0632666666667;113.4;13.14;-0.029;0.077;0.981;35.52;-52.32;-56.32
76;47.4735666666667;19.0632666666667;113.4;13.14;-0.08;-0.09;1.008;35.52;-52.32;-56.32
76;47.4735666666667;19.0632666666667;113.4;13.14;0.081;-0.179;0.95;35.52;-52.32;-56.32
76;47.4735666666667;19.0632666666667;113.4;13.14;0.169;-0.11;0.957;36.64;-52.8;-55.04
76;47.4735666666667;19.0632666666667;113.4;13.14;0.24;-0.167;0.963;36.64;-52.8;-55.04
76;47.4735666666667;19.0632666666667;113.4;13.14;0.063;-0.017;1.035;36.64;-52.8;-55.04
76;47.4735666666667;19.0632666666667;113.4;13.14;-0.036;0.14;1.029;36.64;-52.8;-55.04
76;47.4735666666667;19.0632666666667;113.4;13.14;-0.087;0.066;1.011;36.64;-52.8;-55.04
76;47.4735666666667;19.0632666666667;113.4;13.14;0.021;-0.025;0.915;36.64;-52.8;-55.04
76;47.4735666666667;19.0632666666667;113.4;13.14;0.155;-0.165;0.914;36.64;-52.8;-55.04
76;47.4735666666667;19.0632666666667;113.4;13.14;0.215;-0.04;0.848;36.64;-52.8;-55.04
76;47.4735666666667;19.0632666666667;113.4;13.14;0.173;-0.051;0.936;36.64;-52.8;-55.04
76;47.4735666666667;19.0632666666667;113.4;13.14;0.015;0.175;0.97;36.64;-52.8;-55.04
77;47.4736;19.0632666666667;113.5;13.14;0.093;-0.107;1.007;38.4;-53.6;-55.52
77;47.4736;19.0632666666667;113.5;13.14;0.081;0.016;0.988;38.4;-53.6;-55.52
78;47.4736;19.0632666666667;113.5;13.14;0.13;-0.09;0.976;40.64;-53.76;-56.48
78;47.4736;19.0632666666667;113.5;13.14;0.08;0.099;1;40.64;-53.76;-56.48
78;47.4736;19.0632666666667;113.5;13.14;-0.081;0.136;1.017;40.64;-53.76;-56.48
78;47.4736;19.0632666666667;113.5;13.14;-0.101;0.106;1.01;40.64;-53.76;-56.48
78;47.4736;19.0632666666667;113.5;13.14;0.064;0.029;0.956;40.64;-53.76;-56.48
78;47.4736;19.0632666666667;113.5;13.14;0.177;-0.103;0.95;40.64;-53.76;-56.48
78;47.4736;19.0632666666667;113.5;13.14;0.226;-0.07;1.02;40.32;-52.8;-56.8
78;47.4736;19.0632666666667;113.5;13.14;0.11;0.019;1.033;40.32;-52.8;-56.8
79;47.4736;19.0632666666667;113.5;13.14;0.034;-0.027;1.04;40.32;-52.8;-56.8
80;47.4736;19.0632666666667;113.5;12.4;0.087;-0.002;1.007;40.32;-52.8;-56.8
80;47.4736;19.0632666666667;113.5;12.4;0.13;-0.024;0.974;40.32;-51.84;-57.12
80;47.4736;19.0632666666667;113.5;12.4;0.188;-0.129;0.977;40.32;-51.84;-57.12
80;47.4736;19.0632666666667;113.5;12.4;0.234;-0.037;0.981;40.32;-51.84;-57.12
80;47.4736;19.0632666666667;113.5;12.4;0.202;-0.036;0.992;40.32;-51.84;-57.12
80;47.4736;19.0632666666667;113.5;12.4;0.043;0.11;1.047;40.32;-51.84;-57.12
80;47.4736;19.0632666666667;113.5;12.4;-0.056;0.14;1.053;40.32;-51.84;-57.12
80;47.4736;19.0632666666667;113.5;12.4;0.039;-0.025;1.026;39.52;-52.16;-58.88
80;47.4736;19.0632666666667;113.5;12.4;0.148;-0.128;0.976;39.52;-52.16;-58.88
80;47.4736;19.0632666666667;113.5;12.4;0.248;-0.06;1.017;39.52;-52.16;-58.88
80;47.4736;19.0632666666667;113.5;12.4;0.146;0.093;1.023;39.52;-52.16;-58.88
81;47.4736;19.0632666666667;113.5;12.4;0.029;0.047;0.991;37.6;-50.4;-58.72
81;47.4736;19.0632666666667;113.5;12.4;0.105;-0.099;0.99;37.6;-50.4;-58.72
81;47.4736;19.0632666666667;113.5;12.4;0.255;-0.092;0.974;37.6;-50.4;-58.72
81;47.4736;19.0632666666667;113.5;12.4;0.193;-0.03;1.013;37.6;-50.4;-58.72
81;47.4736;19.0632666666667;113.5;12.4;0.099;0.146;1.017;37.6;-50.4;-58.72
81;47.4736;19.0632666666667;113.5;12.4;-0.02;0.099;1.067;37.6;-50.4;-58.72
81;47.4736;19.0632666666667;113.5;12.4;-0.048;0.135;1.014;36.64;-51.52;-59.04
81;47.4736;19.0632666666667;113.5;12.4;0.071;-0.094;1.04;36.64;-51.52;-59.04
81;47.4736;19.0632666666667;113.5;12.4;0.207;-0.063;0.949;36.64;-51.52;-59.04
82;47.4736333333333;19.06325;113.6;12.4;0.112;0.06;0.995;36.64;-51.52;-59.04
83;47.4736333333333;19.06325;113.6;12.33;0.074;0.039;1.028;34.72;-52.16;-58.08
83;47.4736333333333;19.06325;113.6;12.33;0.056;0.027;1.008;34.72;-52.16;-58.08
83;47.4736333333333;19.06325;113.6;12.33;-0.025;0.085;1.025;34.72;-52.16;-58.08
83;47.4736333333333;19.06325;113.6;12.33;-0.017;0.028;1.025;34.72;-52.16;-58.08
83;47.4736333333333;19.06325;113.6;12.33;0.021;-0.06;0.993;34.72;-52.16;-58.08
83;47.4736333333333;19.06325;113.6;12.33;0.08;-0.073;0.976;34.72;-52.16;-58.08
83;47.4736333333333;19.06325;113.6;12.33;0.139;-0.047;0.965;34.56;-51.2;-57.76
83;47.4736333333333;19.06325;113.6;12.33;0.144;-0.01;1.036;34.56;-51.2;-57.76
83;47.4736333333333;19.06325;113.6;12.33;0.07;0.021;1.021;34.56;-51.2;-57.76
83;47.4736333333333;19.06325;113.6;12.33;0.104;0.109;1.027;34.56;-51.2;-57.76
83;47.4736333333333;19.06325;113.6;12.33;0.035;0.056;1.016;34.56;-51.2;-57.76
83;47.4736333333333;19.06325;113.6;12.33;0.02;0.047;1.062;34.56;-51.2;-57.76
84;47.4736333333333;19.06325;113.6;12.33;0.08;0.088;1.04;33.76;-55.36;-52
84;47.4736333333333;19.06325;113.6;12.33;0.024;0.107;1.016;34.4;-55.84;-52.64
85;47.4736333333333;19.06325;113.6;12.33;0.017;0.018;1.016;34.4;-55.84;-52.64
86;47.47365;19.0632333333333;113.6;11.64;0.137;-0.128;0.951;36;-56.8;-50.56
86;47.47365;19.0632333333333;113.6;11.64;0.188;-0.037;0.951;36;-56.8;-50.56
86;47.47365;19.0632333333333;113.6;11.64;0.138;-0.065;1.021;36;-56.8;-50.56
86;47.47365;19.0632333333333;113.6;11.64;0.047;0.021;1.04;38.24;-57.92;-50.72
86;47.47365;19.0632333333333;113.6;11.64;0.041;-0.012;1.056;38.24;-57.92;-50.72
86;47.47365;19.0632333333333;113.6;11.64;0.056;-0.011;1.011;38.24;-57.92;-50.72
86;47.47365;19.0632333333333;113.6;11.64;0.033;-0.071;1.073;38.24;-57.92;-50.72
86;47.47365;19.0632333333333;113.6;11.64;0.005;0.1;1.024;38.24;-57.92;-50.72
86;47.47365;19.0632333333333;113.6;11.64;0.079;0;1.008;38.24;-57.92;-50.72
87;47.47365;19.0632333333333;113.6;11.64;0.208;-0.02;1.03;38.88;-58.08;-50.72
88;47.47365;19.0632333333333;113.6;11.64;0.147;0.06;1.007;38.88;-58.08;-50.72
88;47.47365;19.0632333333333;113.6;11.64;0.136;-0.016;0.953;38.88;-58.08;-50.72
88;47.47365;19.0632333333333;113.6;11.64;0.133;0.029;1.001;38.88;-58.08;-50.72
88;47.47365;19.0632333333333;113.6;11.64;0.018;0.033;0.989;38.88;-58.08;-50.72
88;47.47365;19.0632333333333;113.6;11.64;0.028;0.012;0.984;39.68;-59.68;-49.6
88;47.47365;19.0632333333333;113.6;11.64;0.018;-0.129;1.025;39.68;-59.68;-49.6
88;47.47365;19.0632333333333;113.6;11.64;0.055;0.074;0.993;39.68;-59.68;-49.6
88;47.47365;19.0632333333333;113.6;11.64;0.056;-0.035;1.016;39.68;-59.68;-49.6
88;47.47365;19.0632333333333;113.6;11.64;0.165;0.013;1.02;39.68;-59.68;-49.6
88;47.47365;19.0632333333333;113.6;11.64;0.125;-0.058;0.993;39.68;-59.68;-49.6
88;47.47365;19.0632333333333;113.6;11.64;0.146;0.111;0.993;40.48;-59.52;-50.08
88;47.47365;19.0632333333333;113.6;11.64;0.034;0.076;1.065;40.48;-59.52;-50.08
89;47.47365;19.0632333333333;113.6;11.64;0.01;0.037;1.067;40.48;-59.52;-50.08
89;47.47365;19.0632333333333;113.6;11.64;0.101;-0.073;0.991;40.48;-59.52;-50.08
89;47.47365;19.0632333333333;113.6;11.64;0.144;-0.081;1.038;40.48;-59.52;-50.08
89;47.47365;19.0632333333333;113.6;11.64;0.185;0.037;0.994;39.52;-60;-52
89;47.47365;19.0632333333333;113.6;11.64;0.16;-0.027;0.999;39.52;-60;-52
89;47.47365;19.0632333333333;113.6;11.64;0.132;0.077;0.971;39.52;-60;-52
89;47.47365;19.0632333333333;113.6;11.64;0.14;0.018;0.956;39.52;-60;-52
89;47.47365;19.0632333333333;113.6;11.64;0.113;0.044;0.975;39.52;-60;-52
89;47.47365;19.0632333333333;113.6;11.64;0.016;0.035;1.027;39.52;-60;-52
89;47.47365;19.0632333333333;113.6;11.64;0;0.02;1.014;40.48;-60.32;-51.36
89;47.47365;19.0632333333333;113.6;11.64;-0.009;0.043;0.99;40.48;-60.32;-51.36
89;47.47365;19.0632333333333;113.6;11.64;0.032;-0.001;1.009;40.48;-60.32;-51.36
90;47.4736833333333;19.0632333333333;113.6;11.87;0.128;-0.018;0.966;41.76;-60;-53.92
90;47.4736833333333;19.0632333333333;113.6;11.87;0.05;0.06;0.986;41.76;-60;-53.92
90;47.4736833333333;19.0632333333333;113.6;11.87;-0.004;0.055;1.009;41.6;-59.84;-53.76
90;47.4736833333333;19.0632333333333;113.6;11.87;0.032;-0.096;1.013;41.6;-59.84;-53.76
90;47.4736833333333;19.0632333333333;113.6;11.87;0.131;-0.051;1.048;41.6;-59.84;-53.76
90;47.4736833333333;19.0632333333333;113.6;11.87;0.071;-0.028;1.085;41.6;-59.84;-53.76
90;47.4736833333333;19.0632333333333;113.6;11.87;0.019;0.092;1.1;41.6;-59.84;-53.76
90;47.4736833333333;19.0632333333333;113.6;11.87;0.069;-0.043;1.048;41.6;-59.84;-53.76
90;47.4736833333333;19.0632333333333;113.6;11.87;0.175;-0.043;1.023;41.44;-59.84;-55.2
90;47.4736833333333;19.0632333333333;113.6;11.87;0.175;-0.107;1.06;41.44;-59.84;-55.2
91;47.4736833333333;19.0632333333333;113.6;11.87;0.041;0.063;1.049;41.44;-59.84;-55.2
91;47.4736833333333;19.0632333333333;113.6;11.87;-0.038;0.066;1.012;41.44;-59.84;-55.2
91;47.4736833333333;19.0632333333333;113.6;11.87;-0.04;0.16;0.976;41.44;-59.84;-55.2
91;47.4736833333333;19.0632333333333;113.6;11.87;-0.047;0.007;0.992;41.12;-59.2;-54.4
91;47.4736833333333;19.0632333333333;113.6;11.87;0.036;0.037;0.961;41.12;-59.2;-54.4
91;47.4736833333333;19.0632333333333;113.6;11.87;0.071;0.035;0.951;41.12;-59.2;-54.4
91;47.4736833333333;19.0632333333333;113.6;11.87;0.117;-0.034;0.987;41.12;-59.2;-54.4
91;47.4736833333333;19.0632333333333;113.6;11.87;0.117;-0.008;1.029;41.12;-59.2;-54.4
91;47.4736833333333;19.0632333333333;113.6;11.87;0.176;-0.021;0.983;41.12;-59.2;-54.4
91;47.4736833333333;19.0632333333333;113.6;11.87;0.234;-0.189;1.002;41.92;-59.68;-53.76
92;47.4736833333333;19.0632333333333;113.6;11.87;0.114;0.029;1.022;41.92;-59.68;-53.76
92;47.4736833333333;19.0632333333333;113.6;11.87;0.069;0.047;1.048;41.92;-59.68;-53.76
93;47.4736833333333;19.0632333333333;113.6;11.87;0.041;-0.038;1.043;41.92;-59.68;-53.76
93;47.4736833333333;19.0632333333333;113.6;11.87;0.069;-0.084;1.013;41.6;-58.72;-55.04
93;47.4736833333333;19.0632333333333;113.6;11.87;0.062;0.008;0.997;41.6;-58.72;-55.04
93;47.4736833333333;19.0632333333333;113.6;11.87;0.031;0.001;1.067;41.6;-58.72;-55.04
93;47.4736833333333;19.0632333333333;113.6;11.87;0.06;0.011;1.007;41.6;-58.72;-55.04
93;47.4736833333333;19.0632333333333;113.6;11.87;0.122;0.037;0.986;41.6;-58.72;-55.04
93;47.4736833333333;19.0632333333333;113.6;11.87;0.175;-0.03;0.98;41.6;-58.72;-55.04
93;47.4736833333333;19.0632333333333;113.6;11.87;0.201;-0.025;0.986;42.08;-58.56;-55.52
93;47.4736833333333;19.0632333333333;113.6;11.87;0.14;0.054;0.976;42.08;-58.56;-55.52
93;47.4736833333333;19.0632333333333;113.6;11.87;0.09;-0.038;0.982;42.08;-58.56;-55.52
93;47.4736833333333;19.0632333333333;113.6;11.87;0.029;0.155;0.97;42.08;-58.56;-55.52
94;47.4736833333333;19.0632333333333;113.6;11.87;-0.026;0.066;1.003;42.08;-58.56;-55.52
94;47.4736833333333;19.0632333333333;113.6;11.87;0.041;0.001;1.04;41.76;-58.88;-56.96
94;47.4736833333333;19.0632333333333;113.6;11.87;0.071;-0.11;1.021;41.76;-58.88;-56.96
94;47.4736833333333;19.0632333333333;113.6;11.87;0.096;-0.059;1.014;41.76;-58.88;-56.96
94;47.4736833333333;19.0632333333333;113.6;11.87;0.102;-0.02;1.037;41.76;-58.88;-56.96
94;47.4736833333333;19.0632333333333;113.6;11.87;0.103;-0.099;1.053;41.76;-58.88;-56.96
94;47.4736833333333;19.0632333333333;113.6;11.87;0.115;0.116;1.013;41.76;-58.88;-56.96
94;47.4736833333333;19.0632333333333;113.6;11.87;0.139;0.031;1.052;42.08;-59.36;-57.12
94;47.4736833333333;19.0632333333333;113.6;11.87;0.127;-0.012;1.028;42.08;-59.36;-57.12
94;47.4736833333333;19.0632333333333;113.6;11.87;0.145;0.022;1.022;42.08;-59.36;-57.12
94;47.4736833333333;19.0632333333333;113.6;11.87;0.039;0.063;1.044;42.08;-59.36;-57.12
94;47.4736833333333;19.0632333333333;113.6;11.87;0.025;0.037;1.072;42.08;-59.36;-57.12
95;47.4737166666667;19.0632166666667;113.4;11.72;0.094;-0.025;0.989;41.92;-58.72;-57.12
95;47.4737166666667;19.0632166666667;113.4;11.72;0.095;0.035;0.971;41.92;-58.72;-57.12
95;47.4737166666667;19.0632166666667;113.4;11.72;0.107;-0.073;0.956;41.92;-58.72;-57.12
95;47.4737166666667;19.0632166666667;113.4;11.72;0.109;0.031;1.03;41.92;-58.72;-57.12
95;47.4737166666667;19.0632166666667;113.4;11.72;0.096;0.023;0.975;41.92;-58.72;-57.12
95;47.4737166666667;19.0632166666667;113.4;11.72;0.099;-0.07;1.015;41.92;-58.72;-57.12
95;47.4737166666667;19.0632166666667;113.4;11.72;0.108;-0.033;1.009;40.16;-58.56;-58.08
95;47.4737166666667;19.0632166666667;113.4;11.72;0.138;-0.028;0.966;40.16;-58.56;-58.08
95;47.4737166666667;19.0632166666667;113.4;11.72;0.069;-0.051;1.041;40.16;-58.56;-58.08
95;47.4737166666667;19.0632166666667;113.4;11.72;0.001;0.097;0.984;40.16;-58.56;-58.08
95;47.4737166666667;19.0632166666667;113.4;11.72;0.039;-0.019;1.005;40.16;-58.56;-58.08
95;47.4737166666667;19.0632166666667;113.4;11.72;0.027;0.066;0.981;40.16;-58.56;-58.08
96;47.4737166666667;19.0632166666667;113.4;11.72;0.102;0.019;0.972;39.84;-58.56;-58.56
96;47.4737166666667;19.0632166666667;113.4;11.72;0.171;-0.012;0.98;39.84;-58.56;-58.56
96;47.4737166666667;19.0632166666667;113.4;11.72;0.175;0.011;0.968;39.84;-58.56;-58.56
96;47.4737166666667;19.0632166666667;113.4;11.72;0.18;-0.097;1.014;39.84;-58.56;-58.56
96;47.4737166666667;19.0632166666667;113.4;11.72;0.125;0.064;0.955;39.84;-58.56;-58.56
96;47.4737166666667;19.0632166666667;113.4;11.72;0.115;-0.02;1.003;39.68;-57.28;-58.88
96;47.4737166666667;19.0632166666667;113.4;11.72;0.069;0.045;1.027;39.68;-57.28;-58.88
96;47.4737166666667;19.0632166666667;113.4;11.72;0.108;0.069;1.052;39.68;-57.28;-58.88
96;47.4737166666667;19.0632166666667;113.4;11.72;0.067;0.132;1.099;39.68;-57.28;-58.88
96;47.4737166666667;19.0632166666667;113.4;11.72;0.037;0.045;1.066;39.68;-57.28;-58.88
96;47.4737166666667;19.0632166666667;113.4;11.72;0.04;0.087;1.094;39.68;-57.28;-58.88
97;47.4737166666667;19.0632166666667;113.4;11.72;0.081;-0.063;1.014;38.72;-58.24;-58.24
97;47.4737166666667;19.0632166666667;113.4;11.72;0.135;-0.058;0.992;38.72;-58.24;-58.24
97;47.4737166666667;19.0632166666667;113.4;11.72;0.188;-0.119;0.962;38.72;-58.24;-58.24
97;47.4737166666667;19.0632166666667;113.4;11.72;0.229;-0.026;0.938;38.72;-58.24;-58.24
97;47.4737166666667;19.0632166666667;113.4;11.72;0.197;0.024;0.971;38.72;-58.24;-58.24
97;47.4737166666667;19.0632166666667;113.4;11.72;0.105;0.084;0.981;38.72;-58.24;-58.24
97;47.4737166666667;19.0632166666667;113.4;11.72;0.124;0.063;1.01;39.52;-56.64;-59.04
97;47.4737166666667;19.0632166666667;113.4;11.72;0.056;0.023;1.01;39.52;-56.64;-59.04
97;47.4737166666667;19.0632166666667;113.4;11.72;0.026;0.095;1.029;39.52;-56.64;-59.04
97;47.4737166666667;19.0632166666667;113.4;11.72;0.029;0.017;1.039;39.52;-56.64;-59.04
97;47.4737166666667;19.0632166666667;113.4;11.72;0.006;-0.037;1.033;39.52;-56.64;-59.04
98;47.4737166666667;19.0632166666667;113.4;11.72;0.022;0.035;1.024;39.2;-55.68;-58.56
98;47.4737166666667;19.0632166666667;113.4;11.72;0.104;-0.131;0.981;39.2;-55.68;-58.56
98;47.4737166666667;19.0632166666667;113.4;11.72;0.092;-0.025;0.984;39.2;-55.68;-58.56
98;47.4737166666667;19.0632166666667;113.4;11.72;0.168;-0.16;0.99;39.2;-55.68;-58.56
98;47.4737166666667;19.0632166666667;113.4;11.72;0.184;-0.058;0.988;39.2;-55.68;-58.56
98;47.4737166666667;19.0632166666667;113.4;11.72;0.159;0.016;0.99;39.2;-55.68;-58.56
98;47.4737166666667;19.0632166666667;113.4;11.72;0.11;0.076;1.022;39.68;-55.52;-58.56
98;47.4737166666667;19.0632166666667;113.4;11.72;0.123;-0.045;1.036;39.68;-55.52;-58.56
98;47.4737166666667;19.0632166666667;113.4;11.72;0.111;-0.09;0.982;39.68;-55.52;-58.56
98;47.4737166666667;19.0632166666667;113.4;11.72;0.05;0.116;1.008;39.68;-55.52;-58.56
99;47.47375;19.0632;113.1;11.31;0.115;0.078;0.937;40;-55.2;-58.88
99;47.47375;19.0632;113.1;11.31;0.171;-0.065;0.98;40;-55.2;-58.88
99;47.47375;19.0632;113.1;11.31;0.157;0.023;0.981;40;-55.2;-58.88
99;47.47375;19.0632;113.1;11.31;0.091;0.071;0.985;40;-55.2;-58.88
99;47.47375;19.0632;113.1;11.31;0.047;0.096;1.027;40;-55.2;-58.88
99;47.47375;19.0632;113.1;11.31;0.015;0.001;1.007;38.56;-55.52;-57.92
99;47.47375;19.0632;113.1;11.31;-0.003;0.079;1.088;38.56;-55.52;-57.92
99;47.47375;19.0632;113.1;11.31;-0.014;-0.017;1.035;38.56;-55.52;-57.92
99;47.47375;19.0632;113.1;11.31;0.002;0.065;1.026;38.56;-55.52;-57.92
99;47.47375;19.0632;113.1;11.31;0.037;-0.001;1.009;38.56;-55.52;-57.92
100;47.47375;19.0632;113.1;11.31;0.082;0.085;0.996;39.2;-55.68;-56.96
100;47.47375;19.0632;113.1;11.31;0.11;-0.053;1.017;39.2;-55.68;-56.96
100;47.47375;19.0632;113.1;11.31;0.167;-0.039;1.016;39.2;-55.68;-56.96
100;47.47375;19.0632;113.1;11.31;0.151;-0.091;1.017;39.2;-55.68;-56.96
100;47.47375;19.0632;113.1;11.31;0.112;-0.056;1.063;39.2;-55.68;-56.96
100;47.47375;19.0632;113.1;11.31;0.139;-0.059;0.991;39.2;-55.68;-56.96
100;47.47375;19.0632;113.1;11.31;0.083;0.035;1.049;38.56;-56.32;-56.32
100;47.47375;19.0632;113.1;11.31;0.028;-0.048;1.044;38.56;-56.32;-56.32
100;47.47375;19.0632;113.1;11.31;0.032;0.069;1.043;38.56;-56.32;-56.32
100;47.47375;19.0632;113.1;11.31;0.032;-0.129;1.017;38.56;-56.32;-56.32
101;47.47375;19.0632;113.1;11.31;0.051;-0.008;1.011;38.56;-56.32;-56.32
102;47.4737666666667;19.0632;113.1;11.31;0.135;-0.027;0.984;39.52;-57.12;-58.24
102;47.4737666666667;19.0632;113.1;11.31;0.196;-0.06;1.009;39.52;-57.12;-58.24
102;47.4737666666667;19.0632;113.1;11.31;0.242;0.005;1.006;39.52;-57.12;-58.24
102;47.4737666666667;19.0632;113.1;11.31;0.247;-0.118;1;39.52;-57.12;-58.24
102;47.4737666666667;19.0632;113.1;11.31;0.176;0.034;0.997;39.52;-57.12;-58.24
102;47.4737666666667;19.0632;113.1;11.31;0.136;-0.028;0.971;39.04;-57.6;-56.32
102;47.4737666666667;19.0632;113.1;11.31;0.104;0.024;0.993;39.04;-57.6;-56.32
102;47.4737666666667;19.0632;113.1;11.31;0.074;-0.004;0.99;39.04;-57.6;-56.32
102;47.4737666666667;19.0632;113.1;11.31;0.017;0.095;1.043;39.04;-57.6;-56.32
102;47.4737666666667;19.0632;113.1;11.31;-0.04;0.026;1.007;39.04;-57.6;-56.32
102;47.4737666666667;19.0632;113.1;11.31;0.027;0.007;0.986;39.04;-57.6;-56.32
102;47.4737666666667;19.0632;113.1;11.31;0.099;-0.17;1.025;37.92;-57.6;-56.32
102;47.4737666666667;19.0632;113.1;11.31;0.066;0.037;0.916;37.92;-57.6;-56.32
103;47.4737666666667;19.0632;113.1;11.65;0.081;-0.076;0.96;38.56;-58.08;-55.52
103;47.4737666666667;19.0632;113.1;11.65;0.141;-0.025;0.967;38.56;-58.08;-55.52
103;47.4737666666667;19.0632;113.1;11.65;0.15;-0.138;0.99;38.56;-58.08;-55.52
103;47.4737666666667;19.0632;113.1;11.65;0.156;-0.038;1.003;38.56;-58.08;-55.52
103;47.4737666666667;19.0632;113.1;11.65;0.167;-0.036;0.987;38.4;-58.24;-55.52
103;47.4737666666667;19.0632;113.1;11.65;0.127;0.027;0.976;38.4;-58.24;-55.52
103;47.4737666666667;19.0632;113.1;11.65;0.121;-0.004;1.015;38.4;-58.24;-55.52
103;47.4737666666667;19.0632;113.1;11.65;0.058;-0.025;0.99;38.4;-58.24;-55.52
103;47.4737666666667;19.0632;113.1;11.65;0.04;-0.02;0.994;38.4;-58.24;-55.52
103;47.4737666666667;19.0632;113.1;11.65;-0.012;0.063;0.996;38.4;-58.24;-55.52
103;47.4737666666667;19.0632;113.1;11.65;0.024;-0.066;0.996;38.08;-58.72;-55.36
105;47.4738;19.0631833333333;113;11.65;0.021;-0.002;1.006;39.2;-58.88;-55.52
105;47.4738;19.0631833333333;113;11.65;0.008;-0.102;1.042;39.2;-58.88;-55.52
105;47.4738;19.0631833333333;113;11.65;0.057;0.073;0.983;39.2;-58.88;-55.52
105;47.4738;19.0631833333333;113;11.65;0.121;-0.066;1.034;39.2;-58.88;-55.52
105;47.4738;19.0631833333333;113;11.65;0.124;-0.025;1.024;38.56;-59.2;-54.72
105;47.4738;19.0631833333333;113;11.65;0.164;-0.025;0.973;38.56;-59.2;-54.72
105;47.4738;19.0631833333333;113;11.65;0.152;-0.006;0.976;38.56;-59.2;-54.72
105;47.4738;19.0631833333333;113;11.65;0.181;-0.028;0.962;38.56;-59.2;-54.72
105;47.4738;19.0631833333333;113;11.65;0.164;0.037;0.979;38.56;-59.2;-54.72
105;47.4738;19.0631833333333;113;11.65;0.119;0.037;1.025;38.56;-59.2;-54.72
105;47.4738;19.0631833333333;113;11.65;0.149;-0.017;0.994;40.8;-59.04;-54.88
105;47.4738;19.0631833333333;113;11.65;0.064;0.082;1.042;40.8;-59.04;-54.88
106;47.4738;19.0631833333333;113;11.65;0.056;0.126;1.031;40.8;-59.04;-54.88
106;47.4738;19.0631833333333;113;11.65;-0.009;-0.017;1.048;40.8;-59.04;-54.88
107;47.4738;19.0631833333333;113;11.45;0.044;0.016;0.98;40.8;-59.04;-54.88
107;47.4738;19.0631833333333;113;11.45;0.041;-0.03;0.959;40.8;-59.04;-54.88
107;47.4738;19.0631833333333;113;11.45;0.128;-0.017;0.985;40.8;-59.04;-54.88
107;47.4738;19.0631833333333;113;11.45;0.117;-0.066;1.022;40.8;-59.04;-54.88
107;47.4738;19.0631833333333;113;11.45;0.151;-0.032;0.969;40.8;-59.04;-54.88
107;47.4738;19.0631833333333;113;11.45;0.155;-0.001;1.015;40.8;-59.04;-54.88
107;47.4738;19.0631833333333;113;11.45;0.168;0.063;1.039;40.8;-59.04;-54.88
107;47.4738;19.0631833333333;113;11.45;0.099;0.062;0.977;39.68;-59.36;-54.56
108;47.4738;19.0631833333333;113;11.45;0.057;-0.019;1.05;39.68;-60.16;-55.52
108;47.4738;19.0631833333333;113;11.45;0.047;0.015;1.031;39.68;-60.16;-55.52
108;47.4738;19.0631833333333;113;11.45;0.062;-0.09;1.041;39.68;-60.48;-55.68
108;47.4738;19.0631833333333;113;11.45;0.084;-0.09;1.023;39.68;-60.48;-55.68
108;47.4738;19.0631833333333;113;11.45;0.121;-0.032;1.002;39.68;-60.48;-55.68
108;47.4738;19.0631833333333;113;11.45;0.048;0.032;0.982;39.68;-60.48;-55.68
108;47.4738;19.0631833333333;113;11.45;0.091;0.116;0.978;39.68;-60.48;-55.68
108;47.4738;19.0631833333333;113;11.45;0.09;-0.057;0.966;39.68;-60.48;-55.68
108;47.4738;19.0631833333333;113;11.45;0.094;0.031;0.951;39.04;-60.48;-56.16
109;47.4738;19.0631833333333;113;11.45;0.102;-0.032;0.996;39.04;-60.48;-56.16
110;47.4738333333333;19.0631833333333;112.7;11.45;0.119;-0.006;1.013;39.04;-60.96;-55.2
111;47.4738333333333;19.0631833333333;112.7;11.67;0.135;-0.039;1.029;38.4;-60.16;-56.32
111;47.4738333333333;19.0631833333333;112.7;11.67;0.245;-0.003;1.002;38.4;-60.16;-56.32
111;47.4738333333333;19.0631833333333;112.7;11.67;0.168;-0.111;0.996;38.4;-60.16;-56.32
111;47.4738333333333;19.0631833333333;112.7;11.67;0.124;-0.049;0.974;38.4;-60.16;-56.32
111;47.4738333333333;19.0631833333333;112.7;11.67;0.103;-0.09;0.991;38.4;-60.16;-56.32
111;47.4738333333333;19.0631833333333;112.7;11.67;0.063;-0.035;0.99;38.4;-60.16;-56.32
111;47.4738333333333;19.0631833333333;112.7;11.67;0.015;0.006;1.023;37.44;-61.6;-56.48
111;47.4738333333333;19.0631833333333;112.7;11.67;0.031;0.003;1.024;37.44;-61.6;-56.48
111;47.4738333333333;19.0631833333333;112.7;11.67;0.065;-0.055;0.981;37.44;-61.6;-56.48
111;47.4738333333333;19.0631833333333;112.7;11.67;0.055;0.085;0.993;37.44;-61.6;-56.48
112;47.4738333333333;19.0631833333333;112.7;11.67;0.064;0.019;0.996;37.44;-61.6;-56.48
112;47.4738333333333;19.0631833333333;112.7;11.67;0.055;-0.012;1.034;38.24;-60.64;-55.84
112;47.4738333333333;19.0631833333333;112.7;11.67;0.112;0.082;1.039;38.24;-60.64;-55.84
112;47.4738333333333;19.0631833333333;112.7;11.67;0.022;-0.05;1.071;38.24;-60.64;-55.84
112;47.4738333333333;19.0631833333333;112.7;11.67;0.108;-0.029;0.986;38.24;-60.64;-55.84
112;47.4738333333333;19.0631833333333;112.7;11.67;0.074;-0.048;0.978;38.24;-60.64;-55.84
112;47.4738333333333;19.0631833333333;112.7;11.67;0.081;-0.069;0.989;38.24;-60.64;-55.84
112;47.4738333333333;19.0631833333333;112.7;11.67;0.103;-0.002;0.989;38.4;-61.6;-55.2
112;47.4738333333333;19.0631833333333;112.7;11.67;0.092;-0.071;1.03;38.4;-61.6;-55.2
112;47.4738333333333;19.0631833333333;112.7;11.67;0.143;0.027;1.019;38.4;-61.6;-55.2
112;47.4738333333333;19.0631833333333;112.7;11.67;0.112;0.056;1.002;38.4;-61.6;-55.2
113;47.4738333333333;19.0631833333333;112.7;11.67;0.127;0.12;1.007;38.4;-61.6;-55.2
113;47.4738333333333;19.0631833333333;112.7;11.67;0.126;-0.052;1.03;39.52;-60.96;-55.84
113;47.4738333333333;19.0631833333333;112.7;11.67;0.174;0.014;0.992;39.52;-60.96;-55.84
113;47.4738333333333;19.0631833333333;112.7;11.67;0.095;-0.079;1.036;39.52;-60.96;-55.84
113;47.4738333333333;19.0631833333333;112.7;11.67;0.096;0.096;0.951;39.52;-60.96;-55.84
113;47.4738333333333;19.0631833333333;112.7;11.67;0.06;-0.094;1.013;39.52;-60.96;-55.84
113;47.4738333333333;19.0631833333333;112.7;11.67;0.111;0.036;0.942;39.52;-60.96;-55.84
113;47.4738333333333;19.0631833333333;112.7;11.67;0.088;0.038;1.024;39.36;-60.16;-56.16
113;47.4738333333333;19.0631833333333;112.7;11.67;0.049;0.03;0.991;39.36;-60.16;-56.16
113;47.4738333333333;19.0631833333333;112.7;11.67;0.096;0.019;1.057;39.36;-60.16;-56.16
113;47.4738333333333;19.0631833333333;112.7;11.67;0.065;-0.008;1.015;39.36;-60.16;-56.16
113;47.4738333333333;19.0631833333333;112.7;11.67;0.103;-0.089;0.98;39.36;-60.16;-56.16
114;47.4738333333333;19.0631833333333;112.7;11.67;0.088;0.056;0.977;39.2;-60.16;-56.16
114;47.4738333333333;19.0631833333333;112.7;11.67;0.04;-0.063;1.043;39.2;-60.16;-56.16
114;47.4738333333333;19.0631833333333;112.7;11.67;-0.019;0.107;1.026;39.2;-60.16;-56.16
114;47.4738333333333;19.0631833333333;112.7;11.67;0.011;0.021;1.055;39.2;-60.16;-56.16
114;47.4738333333333;19.0631833333333;112.7;11.67;0.016;0.033;0.992;39.2;-60.16;-56.16
114;47.4738333333333;19.0631833333333;112.7;11.67;-0.011;0.049;1.008;39.2;-60.16;-56.16
114;47.4738333333333;19.0631833333333;112.7;11.67;0.008;0.042;0.996;40.32;-60.64;-56.96
114;47.4738333333333;19.0631833333333;112.7;11.67;0.017;0.048;1.023;40.32;-60.64;-56.96
114;47.4738333333333;19.0631833333333;112.7;11.67;0.062;-0.058;0.978;40.32;-60.64;-56.96
114;47.4738333333333;19.0631833333333;112.7;11.67;0.093;-0.036;1.024;40.32;-60.64;-56.96
114;47.4738333333333;19.0631833333333;112.7;11.67;0.052;0.051;1.017;40.32;-60.64;-56.96
115;47.47385;19.0631666666667;112.6;11.33;0.124;-0.009;0.994;41.6;-58.72;-57.28
115;47.47385;19.0631666666667;112.6;11.33;0.065;-0.001;1.048;41.6;-58.72;-57.28
115;47.47385;19.0631666666667;112.6;11.33;0.113;-0.083;0.985;41.6;-58.72;-57.28
115;47.47385;19.0631666666667;112.6;11.33;0.09;0.086;0.987;41.6;-58.72;-57.28
115;47.47385;19.0631666666667;112.6;11.33;0.118;-0.028;1.027;41.6;-58.72;-57.28
115;47.47385;19.0631666666667;112.6;11.33;0.127;-0.011;1.016;41.6;-58.72;-57.28
115;47.47385;19.0631666666667;112.6;11.33;0.158;0.009;0.991;41.6;-58.4;-57.28
115;47.47385;19.0631666666667;112.6;11.33;0.086;0.014;1.045;41.6;-58.4;-57.28
115;47.47385;19.0631666666667;112.6;11.33;0.104;-0.027;0.977;41.6;-58.4;-57.28
115;47.47385;19.0631666666667;112.6;11.33;0.116;-0.048;1.022;41.6;-58.4;-57.28
115;47.47385;19.0631666666667;112.6;11.33;0.071;-0.077;0.988;41.6;-58.4;-57.28
115;47.47385;19.0631666666667;112.6;11.33;0.098;0.036;1.008;41.6;-58.4;-57.28
115;47.47385;19.0631666666667;112.6;11.33;0.092;-0.033;1.012;42.4;-58.08;-58.88
116;47.47385;19.0631666666667;112.6;11.33;0.09;-0.07;0.972;42.72;-57.28;-61.28
116;47.47385;19.0631666666667;112.6;11.33;0.121;0.054;0.989;42.72;-57.28;-61.28
117;47.47385;19.0631666666667;112.6;11.33;0.119;0.036;1.012;42.56;-56.48;-62.08
118;47.4738833333333;19.0631666666667;112.7;11.33;0.128;0.066;0.953;42.56;-56.48;-62.08
118;47.4738833333333;19.0631666666667;112.7;11.33;0.084;-0.021;0.967;42.56;-56.48;-62.08
118;47.4738833333333;19.0631666666667;112.7;11.33;0.108;0.015;0.919;42.56;-56.48;-62.08
118;47.4738833333333;19.0631666666667;112.7;11.33;0.069;-0.068;1.016;42.72;-56.96;-62.56
118;47.4738833333333;19.0631666666667;112.7;11.33;0.106;-0.041;0.966;42.72;-56.96;-62.56
118;47.4738833333333;19.0631666666667;112.7;11.33;0.116;-0.081;1.022;42.72;-56.96;-62.56
118;47.4738833333333;19.0631666666667;112.7;11.33;0.154;-0.034;0.995;42.72;-56.96;-62.56
118;47.4738833333333;19.0631666666667;112.7;11.33;0.14;-0.025;1.018;42.72;-56.96;-62.56
118;47.4738833333333;19.0631666666667;112.7;11.33;0.144;0.038;0.978;42.72;-56.96;-62.56
118;47.4738833333333;19.0631666666667;112.7;11.33;0.143;0.023;1.008;43.04;-56.48;-62.88
119;47.4738833333333;19.0631666666667;112.7;10.05;0.118;0.088;0.949;42.56;-57.6;-65.44
119;47.4738833333333;19.0631666666667;112.7;10.05;0.111;-0.061;1.017;42.56;-57.6;-65.44
119;47.4738833333333;19.0631666666667;112.7;10.05;0.088;-0.017;0.96;42.56;-57.6;-65.44
119;47.4738833333333;19.0631666666667;112.7;10.05;0.145;-0.075;1.041;42.56;-56.48;-64.48
119;47.4738833333333;19.0631666666667;112.7;10.05;0.08;0.015;0.962;42.56;-56.48;-64.48
119;47.4738833333333;19.0631666666667;112.7;10.05;0.128;-0.045;1.008;42.56;-56.48;-64.48
119;47.4738833333333;19.0631666666667;112.7;10.05;0.083;0.053;0.996;42.56;-56.48;-64.48
119;47.4738833333333;19.0631666666667;112.7;10.05;0.049;0.067;1.029;42.56;-56.48;-64.48
119;47.4738833333333;19.0631666666667;112.7;10.05;0.06;-0.049;1.043;42.56;-56.48;-64.48
119;47.4738833333333;19.0631666666667;112.7;10.05;0.131;-0.008;1.024;43.04;-58.08;-65.76
120;47.4738833333333;19.0631666666667;112.7;10.05;0.08;0.036;0.997;43.04;-58.08;-65.76
121;47.4739;19.06315;112.7;10.05;0.093;-0.002;0.948;42.24;-57.44;-67.2
121;47.4739;19.06315;112.7;10.05;0.116;0.02;0.99;42.24;-57.44;-67.2
121;47.4739;19.06315;112.7;10.05;0.107;0.027;0.927;42.08;-57.12;-67.04
121;47.4739;19.06315;112.7;10.05;0.16;-0.016;1.016;42.08;-57.12;-67.04
121;47.4739;19.06315;112.7;10.05;0.106;-0.001;0.944;42.08;-57.12;-67.04
121;47.4739;19.06315;112.7;10.05;0.12;-0.058;1.046;42.08;-57.12;-67.04
121;47.4739;19.06315;112.7;10.05;0.121;0.023;1.002;42.08;-57.12;-67.04
121;47.4739;19.06315;112.7;10.05;0.124;-0.027;1.034;42.08;-57.12;-67.04
121;47.4739;19.06315;112.7;10.05;0.121;0.07;1.024;41.44;-56.16;-68.16
121;47.4739;19.06315;112.7;10.05;0.163;0.016;0.985;41.44;-56.16;-68.16
122;47.4739;19.06315;112.7;10.36;0.158;-0.009;1.05;39.68;-56;-68.96
122;47.4739;19.06315;112.7;10.36;0.143;0.016;1.052;39.68;-56;-68.96
123;47.4739;19.06315;112.7;10.36;0.146;0.018;1.023;39.68;-56;-68.96
123;47.4739;19.06315;112.7;10.36;0.158;-0.039;1.109;39.68;-55.52;-69.44
123;47.4739;19.06315;112.7;10.36;0.127;0.084;1.028;39.68;-55.52;-69.44
123;47.4739;19.06315;112.7;10.36;0.073;0.032;1.108;39.68;-55.52;-69.44
123;47.4739;19.06315;112.7;10.36;0.075;0.07;1.06;39.68;-55.52;-69.44
123;47.4739;19.06315;112.7;10.36;0.084;-0.009;1.051;39.68;-55.52;-69.44
123;47.4739;19.06315;112.7;10.36;0.064;0.017;0.99;39.68;-55.52;-69.44
124;47.4739;19.06315;112.7;10.36;0.056;0.015;0.952;37.6;-56;-68.96
124;47.4739;19.06315;112.7;10.36;0.079;0.047;0.961;37.6;-56;-68.96
125;47.4739;19.06315;112.7;10.36;0.074;0.023;0.942;37.6;-56;-68.96
125;47.4739;19.06315;112.7;10.36;0.088;-0.04;0.937;37.6;-56;-68.96
125;47.4739;19.06315;112.7;10.36;0.043;0.094;0.984;38.88;-55.84;-69.44
125;47.4739;19.06315;112.7;10.36;0.116;-0.032;0.955;38.88;-55.84;-69.44
125;47.4739;19.06315;112.7;10.36;0.092;0.083;1.03;38.88;-55.84;-69.44
125;47.4739;19.06315;112.7;10.36;0.085;0.082;1.007;38.88;-55.84;-69.44
125;47.4739;19.06315;112.7;10.36;0.045;0.107;1.056;38.88;-55.84;-69.44
125;47.4739;19.06315;112.7;10.36;0.072;0.031;1.024;38.88;-55.84;-69.44
125;47.4739;19.06315;112.7;10.36;0.108;0.096;1.028;37.28;-56.8;-67.68
125;47.4739;19.06315;112.7;10.36;0.052;0.146;1.043;37.28;-56.8;-67.68
125;47.4739;19.06315;112.7;10.36;0.055;0.084;1.024;37.28;-56.8;-67.68
126;47.4739333333333;19.0631333333333;112.5;10.36;0;0.056;1.013;37.28;-56.8;-67.68
126;47.4739333333333;19.0631333333333;112.5;10.36;0.031;0.096;1.016;37.28;-56.8;-67.68
126;47.4739333333333;19.0631333333333;112.5;10.36;0.073;0.066;0.977;37.12;-56;-67.2
126;47.4739333333333;19.0631333333333;112.5;10.36;0.06;0.01;1.001;37.12;-56;-67.2
126;47.4739333333333;19.0631333333333;112.5;10.36;0.014;0.135;1.006;37.12;-56;-67.2
126;47.4739333333333;19.0631333333333;112.5;10.36;-0.006;0.008;1.019;37.12;-56;-67.2
126;47.4739333333333;19.0631333333333;112.5;10.36;0.016;0.083;1.011;37.12;-56;-67.2
126;47.4739333333333;19.0631333333333;112.5;10.36;0.016;-0.029;1.042;37.12;-56;-67.2
126;47.4739333333333;19.0631333333333;112.5;10.36;0.072;0.163;0.977;36;-56.16;-66.4
126;47.4739333333333;19.0631333333333;112.5;10.36;0.041;0.115;1.023;36;-56.16;-66.4
126;47.4739333333333;19.0631333333333;112.5;10.36;0.018;0.15;1.008;36;-56.16;-66.4
126;47.4739333333333;19.0631333333333;112.5;10.36;0.073;0.023;1.038;36;-56.16;-66.4
126;47.4739333333333;19.0631333333333;112.5;10.36;0.078;0.111;0.987;36;-56.16;-66.4
127;47.4739333333333;19.0631333333333;112.5;10.18;0.04;0.056;0.986;36;-56.16;-66.4
127;47.4739333333333;19.0631333333333;112.5;10.18;0.043;0.155;1.073;35.04;-57.6;-66.4
127;47.4739333333333;19.0631333333333;112.5;10.18;0.049;0.031;1.04;35.04;-57.6;-66.4
127;47.4739333333333;19.0631333333333;112.5;10.18;0.033;0.06;1.012;35.04;-57.6;-66.4
127;47.4739333333333;19.0631333333333;112.5;10.18;0.099;0.08;0.986;35.04;-57.6;-66.4
127;47.4739333333333;19.0631333333333;112.5;10.18;0.094;0.204;1.021;35.04;-57.6;-66.4
127;47.4739333333333;19.0631333333333;112.5;10.18;0.063;0.125;0.99;35.04;-57.6;-66.4
127;47.4739333333333;19.0631333333333;112.5;10.18;0.119;0.037;1.002;35.2;-57.44;-64.8
127;47.4739333333333;19.0631333333333;112.5;10.18;0.142;0.028;1.025;35.2;-57.44;-64.8
127;47.4739333333333;19.0631333333333;112.5;10.18;0.112;0.093;0.962;35.2;-57.44;-64.8
127;47.4739333333333;19.0631333333333;112.5;10.18;0.088;0.017;1.036;35.2;-57.44;-64.8
128;47.4739333333333;19.0631333333333;112.5;10.18;0.076;-0.021;1.052;35.2;-57.44;-64.8
128;47.4739333333333;19.0631333333333;112.5;10.18;0.11;0.126;0.944;34.4;-59.52;-63.84
128;47.4739333333333;19.0631333333333;112.5;10.18;0.095;0.111;1.048;34.4;-59.52;-63.84
128;47.4739333333333;19.0631333333333;112.5;10.18;0.044;0.222;0.956;34.4;-59.52;-63.84
128;47.4739333333333;19.0631333333333;112.5;10.18;0.095;0.059;1.027;34.4;-59.52;-63.84
128;47.4739333333333;19.0631333333333;112.5;10.18;0.089;0.155;0.987;34.4;-59.52;-63.84
128;47.4739333333333;19.0631333333333;112.5;10.18;0.092;0.096;0.993;34.4;-59.52;-63.84
128;47.4739333333333;19.0631333333333;112.5;10.18;0.108;0.171;1.01;33.76;-60.16;-63.68
128;47.4739333333333;19.0631333333333;112.5;10.18;0.114;0.065;1.025;33.76;-60.16;-63.68
128;47.4739333333333;19.0631333333333;112.5;10.18;0.117;0.086;0.999;33.76;-60.16;-63.68
128;47.4739333333333;19.0631333333333;112.5;10.18;0.109;0.151;1.015;33.76;-60.16;-63.68
128;47.4739333333333;19.0631333333333;112.5;10.18;0.081;0.086;0.997;33.76;-60.16;-63.68
129;47.4739333333333;19.0631333333333;112.5;10.18;0.09;0.136;0.979;33.12;-60.64;-62.88
129;47.4739333333333;19.0631333333333;112.5;10.18;0.129;0.016;0.935;33.12;-60.64;-62.88
129;47.4739333333333;19.0631333333333;112.5;10.18;0.111;0.086;1.009;33.12;-60.64;-62.88
129;47.4739333333333;19.0631333333333;112.5;10.18;0.08;0.1;0.971;33.12;-60.64;-62.88
129;47.4739333333333;19.0631333333333;112.5;10.18;0.114;0.085;1.026;33.12;-60.64;-62.88
129;47.4739333333333;19.0631333333333;112.5;10.18;0.09;0.089;0.982;33.12;-60.64;-62.88
129;47.4739333333333;19.0631333333333;112.5;10.18;0.092;0.135;1.024;32.48;-62.56;-62.88
129;47.4739333333333;19.0631333333333;112.5;10.18;0.112;0.148;1.004;32.48;-62.56;-62.88
129;47.4739333333333;19.0631333333333;112.5;10.18;0.12;0.063;1.05;32.48;-62.56;-62.88
129;47.4739333333333;19.0631333333333;112.5;10.18;0.173;0;1.044;32.48;-62.56;-62.88
129;47.4739333333333;19.0631333333333;112.5;10.18;0.118;0.128;1.029;32.48;-62.56;-62.88
130;47.47395;19.0631333333333;112.2;10.14;0.084;0.197;0.987;29.28;-68.16;-59.04
130;47.47395;19.0631333333333;112.2;10.14;0.077;0.128;0.995;29.28;-68.16;-59.04
130;47.47395;19.0631333333333;112.2;10.14;0.064;0.156;1.016;29.28;-68.16;-59.04
130;47.47395;19.0631333333333;112.2;10.14;0.12;0.095;0.98;29.28;-68.16;-59.04
130;47.47395;19.0631333333333;112.2;10.14;0.051;0.146;1.012;28;-68.32;-58.88
130;47.47395;19.0631333333333;112.2;10.14;0.068;0.194;1.018;28;-68.32;-58.88
130;47.47395;19.0631333333333;112.2;10.14;0.122;0.085;1.005;28;-68.32;-58.88
130;47.47395;19.0631333333333;112.2;10.14;0.091;0.178;0.979;28;-68.32;-58.88
131;47.47395;19.0631333333333;112.2;10.14;0.08;0.147;0.995;28;-68.32;-58.88
132;47.47395;19.0631333333333;112.2;10.14;0.093;0.093;1.028;26.56;-68.96;-57.12
132;47.47395;19.0631333333333;112.2;10.14;0.108;0.211;1.006;26.56;-68.96;-57.12
132;47.47395;19.0631333333333;112.2;10.14;0.062;0.179;1.036;26.56;-68.96;-57.12
132;47.47395;19.0631333333333;112.2;10.14;0.048;0.229;0.983;26.56;-68.96;-57.12
132;47.47395;19.0631333333333;112.2;10.14;0.109;0.092;0.942;26.56;-68.96;-57.12
132;47.47395;19.0631333333333;112.2;10.14;0.108;0.149;0.966;26.08;-70.56;-56.32
132;47.47395;19.0631333333333;112.2;10.14;0.037;0.187;1.01;26.08;-70.56;-56.32
132;47.47395;19.0631333333333;112.2;10.14;0.068;0.187;0.976;26.08;-70.56;-56.32
132;47.47395;19.0631333333333;112.2;10.14;0.05;0.199;1.023;26.08;-70.56;-56.32
132;47.47395;19.0631333333333;112.2;10.14;0.092;0.193;0.982;26.08;-70.56;-56.32
132;47.47395;19.0631333333333;112.2;10.14;0.09;0.146;0.952;26.08;-70.56;-56.32
133;47.47395;19.0631333333333;112.2;10.14;0.085;0.227;0.964;24.48;-71.84;-54.88
133;47.47395;19.0631333333333;112.2;10.14;0.062;0.163;1.035;24.48;-71.84;-54.88
133;47.47395;19.0631333333333;112.2;10.14;0.064;0.176;1.016;24.48;-71.84;-54.88
133;47.47395;19.0631333333333;112.2;10.14;0.113;0.129;1.036;24.48;-71.84;-54.88
133;47.47395;19.0631333333333;112.2;10.14;0.128;0.178;1.051;24.48;-71.84;-54.88
133;47.47395;19.0631333333333;112.2;10.14;0.098;0.149;1.027;24.16;-72.32;-53.44
133;47.47395;19.0631333333333;112.2;10.14;0.093;0.283;1.055;24.16;-72.32;-53.44
133;47.47395;19.0631333333333;112.2;10.14;0.122;0.06;0.977;24.16;-72.32;-53.44
133;47.47395;19.0631333333333;112.2;10.14;0.109;0.198;1.044;24.16;-72.32;-53.44
133;47.47395;19.0631333333333;112.2;10.14;0.172;0.218;1.003;24.16;-72.32;-53.44
133;47.47395;19.0631333333333;112.2;10.14;0.094;0.244;1.088;24.16;-72.32;-53.44
133;47.47395;19.0631333333333;112.2;10.14;0.11;0.222;1.071;22.08;-73.6;-51.36
134;47.4739833333333;19.0631166666667;112.1;9.73;-0.001;0.08;0.998;21.92;-75.84;-50.4
134;47.4739833333333;19.0631166666667;112.1;9.73;0.049;0.203;0.976;21.92;-75.84;-50.4
134;47.4739833333333;19.0631166666667;112.1;9.73;0.081;0.062;0.997;21.92;-75.84;-50.4
134;47.4739833333333;19.0631166666667;112.1;9.73;0.057;0.146;1.017;21.92;-75.84;-50.4
134;47.4739833333333;19.0631166666667;112.1;9.73;0.08;0.17;1.021;21.44;-76.96;-50.72
134;47.4739833333333;19.0631166666667;112.1;9.73;0.063;0.17;1.051;21.44;-76.96;-50.72
134;47.4739833333333;19.0631166666667;112.1;9.73;0.137;0.124;1.017;21.44;-76.96;-50.72
134;47.4739833333333;19.0631166666667;112.1;9.73;0.135;0.101;1.015;21.44;-76.96;-50.72
134;47.4739833333333;19.0631166666667;112.1;9.73;0.089;0.167;1.02;21.44;-76.96;-50.72
134;47.4739833333333;19.0631166666667;112.1;9.73;0.079;0.129;1.007;21.44;-76.96;-50.72
134;47.4739833333333;19.0631166666667;112.1;9.73;0.035;0.23;1.048;21.44;-76.96;-50.72
134;47.4739833333333;19.0631166666667;112.1;9.73;0.173;0.086;1.024;21.44;-76.96;-50.72
136;47.4739833333333;19.0631166666667;112.1;9.73;0.083;0.271;1.042;21.44;-76.96;-50.72
136;47.4739833333333;19.0631166666667;112.1;9.73;0.08;0.159;0.988;21.44;-76.96;-50.72
136;47.4739833333333;19.0631166666667;112.1;9.73;0.188;0.052;0.943;21.44;-76.96;-50.72
136;47.4739833333333;19.0631166666667;112.1;9.73;0.102;0.197;0.971;21.44;-76.96;-50.72
136;47.4739833333333;19.0631166666667;112.1;9.73;0.041;0.232;0.985;20.32;-78.08;-49.92
136;47.4739833333333;19.0631166666667;112.1;9.73;0.019;0.189;1.031;20.32;-78.08;-49.92
136;47.4739833333333;19.0631166666667;112.1;9.73;0.079;0.148;0.984;20.32;-78.08;-49.92
136;47.4739833333333;19.0631166666667;112.1;9.73;0.097;0.13;1.032;20.32;-78.08;-49.92
136;47.4739833333333;19.0631166666667;112.1;9.73;0.032;0.183;1.03;20.32;-78.08;-49.92
137;47.4739833333333;19.0631166666667;112.1;9.73;0.16;0.128;1.022;14.72;-80.48;-50.24
137;47.4739833333333;19.0631166666667;112.1;9.73;0.131;0.123;0.99;14.72;-80.48;-50.24
137;47.4739833333333;19.0631166666667;112.1;9.73;0.138;0.091;0.983;14.72;-80.48;-50.24
137;47.4739833333333;19.0631166666667;112.1;9.73;0.128;0.153;1.016;12.96;-79.2;-50.08
137;47.4739833333333;19.0631166666667;112.1;9.73;0.123;0.019;0.996;12.96;-79.2;-50.08
137;47.4739833333333;19.0631166666667;112.1;9.73;0.085;0.162;1.023;12.96;-79.2;-50.08
137;47.4739833333333;19.0631166666667;112.1;9.73;0.047;0.2;1.02;12.96;-79.2;-50.08
137;47.4739833333333;19.0631166666667;112.1;9.73;0.097;0.092;0.967;12.96;-79.2;-50.08
138;47.474;19.0631;112;9.73;0.078;0.084;1.016;9.92;-80;-50.88
138;47.474;19.0631;112;9.73;0.076;0.152;0.985;9.92;-80;-50.88
138;47.474;19.0631;112;9.73;0.097;0.076;0.98;9.92;-80;-50.88
138;47.474;19.0631;112;9.73;0.133;0.092;1.007;8.48;-78.56;-50.88
138;47.474;19.0631;112;9.73;0.088;0.173;1.032;8.48;-78.56;-50.88
138;47.474;19.0631;112;9.73;0.08;0.16;1.027;8.48;-78.56;-50.88
138;47.474;19.0631;112;9.73;0.126;0.065;1.025;8.48;-78.56;-50.88
138;47.474;19.0631;112;9.73;0.133;0.127;1.007;8.48;-78.56;-50.88
138;47.474;19.0631;112;9.73;0.107;0.038;1.035;8.48;-78.56;-50.88
139;47.474;19.0631;112;9.35;0.108;0.117;1.012;4.48;-76.8;-47.52
139;47.474;19.0631;112;9.35;0.086;0.108;1.005;4.48;-76.8;-47.52
140;47.474;19.0631;112;9.35;0.096;0.088;0.934;3.36;-76.64;-46.4
140;47.474;19.0631;112;9.35;0.1;0.08;0.981;3.36;-76.64;-46.4
140;47.474;19.0631;112;9.35;0.112;0.034;0.949;3.36;-76.64;-46.4
140;47.474;19.0631;112;9.35;0.079;0.063;0.992;3.36;-76.64;-46.4
140;47.474;19.0631;112;9.35;0.088;0.042;0.974;3.36;-76.64;-46.4
140;47.474;19.0631;112;9.35;0.106;0.057;0.977;3.36;-76.64;-46.4
140;47.474;19.0631;112;9.35;0.096;0.098;1.015;4;-74.24;-46.08
141;47.474;19.0631;112;9.35;0.121;0.031;1.005;4;-74.24;-46.08
142;47.474;19.0630666666667;111.9;8.88;0.073;-0.01;0.948;3.68;-73.92;-45.44
142;47.474;19.0630666666667;111.9;8.88;0.04;-0.008;0.923;3.68;-73.92;-45.44
142;47.474;19.0630666666667;111.9;8.88;0.012;0.065;0.948;5.44;-71.36;-45.92
142;47.474;19.0630666666667;111.9;8.88;0.051;0.008;0.946;5.44;-71.36;-45.92
142;47.474;19.0630666666667;111.9;8.88;0.057;0.006;0.974;5.44;-71.36;-45.92
142;47.474;19.0630666666667;111.9;8.88;0.061;0.12;0.964;5.44;-71.36;-45.92
142;47.474;19.0630666666667;111.9;8.88;0.07;0.062;0.986;5.44;-71.36;-45.92
142;47.474;19.0630666666667;111.9;8.88;0.084;0.02;0.993;5.44;-71.36;-45.92
142;47.474;19.0630666666667;111.9;8.88;0.09;0.04;0.991;5.44;-72.48;-46.24
142;47.474;19.0630666666667;111.9;8.88;0.055;0.009;1.052;5.44;-72.48;-46.24
144;47.474;19.0630666666667;111.9;8.88;0.087;0.013;1.053;5.44;-72.48;-46.24
144;47.474;19.0630666666667;111.9;8.88;0.06;-0.007;1.072;5.44;-72.48;-46.24
144;47.474;19.0630666666667;111.9;8.88;0.106;0.026;1.076;5.44;-72.48;-46.24
144;47.474;19.0630666666667;111.9;8.88;0.074;-0.037;1.065;6.4;-71.36;-46.72
144;47.474;19.0630666666667;111.9;8.88;0.077;-0.102;1.013;6.4;-71.36;-46.72
144;47.474;19.0630666666667;111.9;8.88;0.072;0.035;1.081;6.4;-71.36;-46.72
144;47.474;19.0630666666667;111.9;8.88;0.015;0.031;1.041;6.4;-71.36;-46.72
144;47.474;19.0630666666667;111.9;8.88;0.065;-0.073;1.002;6.4;-71.36;-46.72
144;47.474;19.0630666666667;111.9;8.88;0.038;-0.057;1.01;6.4;-71.36;-46.72
144;47.474;19.0630666666667;111.9;8.88;-0.007;0.018;1.007;6.4;-71.36;-46.72
144;47.474;19.0630666666667;111.9;8.88;-0.006;-0.052;1.028;6.88;-71.2;-46.08
144;47.474;19.0630666666667;111.9;8.88;0.048;-0.038;0.959;6.88;-71.2;-46.08
144;47.474;19.0630666666667;111.9;8.88;0.003;0.082;0.993;6.88;-71.2;-46.08
145;47.474;19.0630666666667;111.9;8.88;0.049;-0.033;0.995;6.88;-71.2;-46.08
145;47.474;19.0630666666667;111.9;8.88;0.054;0.023;1.006;6.88;-71.2;-46.08
145;47.474;19.0630666666667;111.9;8.88;0.052;0.018;0.999;7.04;-71.04;-47.04
145;47.474;19.0630666666667;111.9;8.88;0.095;-0.023;0.983;7.04;-71.04;-47.04
145;47.474;19.0630666666667;111.9;8.88;0.065;0.029;1.011;7.04;-71.04;-47.04
145;47.474;19.0630666666667;111.9;8.88;0.055;-0.014;1.016;7.04;-71.04;-47.04
145;47.474;19.0630666666667;111.9;8.88;0.05;0.026;0.995;7.04;-71.04;-47.04
145;47.474;19.0630666666667;111.9;8.88;0.089;0.045;1.023;7.04;-71.04;-47.04
145;47.474;19.0630666666667;111.9;8.88;0.086;0.062;1.024;7.36;-70.56;-47.68
145;47.474;19.0630666666667;111.9;8.88;0.099;-0.026;1.016;7.36;-70.56;-47.68
145;47.474;19.0630666666667;111.9;8.88;0.095;0.024;0.978;7.36;-70.56;-47.68
145;47.474;19.0630666666667;111.9;8.88;0.094;0.063;1.005;7.36;-70.56;-47.68
146;47.474;19.0630333333333;111.8;9.77;0.02;0.054;1.015;6.56;-70.08;-48.48
146;47.474;19.0630333333333;111.8;9.77;0.024;0.026;1.005;6.56;-70.08;-48.48
146;47.474;19.0630333333333;111.8;9.77;0.056;0.045;1.042;8;-68.8;-49.44
146;47.474;19.0630333333333;111.8;9.77;0.071;-0.023;1;8;-68.8;-49.44
146;47.474;19.0630333333333;111.8;9.77;0.084;-0.007;1.037;8;-68.8;-49.44
146;47.474;19.0630333333333;111.8;9.77;0.11;-0.063;1.027;8;-68.8;-49.44
146;47.474;19.0630333333333;111.8;9.77;0.067;0.046;1.031;8;-68.8;-49.44
146;47.474;19.0630333333333;111.8;9.77;0.069;-0.109;1.042;8;-68.8;-49.44
146;47.474;19.0630333333333;111.8;9.77;0.131;-0.014;1.001;5.44;-68.48;-48.96
146;47.474;19.0630333333333;111.8;9.77;0.134;-0.109;1.02;5.44;-68.48;-48.96
146;47.474;19.0630333333333;111.8;9.77;0.077;-0.035;1.026;5.44;-68.48;-48.96
146;47.474;19.0630333333333;111.8;9.77;0.115;-0.048;1.039;5.44;-68.48;-48.96
146;47.474;19.0630333333333;111.8;9.77;0.124;-0.055;1.041;5.44;-68.48;-48.96
148;47.474;19.0630333333333;111.8;9.77;0.055;0.05;1.024;6.56;-67.68;-50.08
148;47.474;19.0630333333333;111.8;9.77;0.111;-0.027;1.01;6.56;-67.68;-50.08
148;47.474;19.0630333333333;111.8;9.77;0.088;-0.07;1.005;6.56;-67.68;-50.08
148;47.474;19.0630333333333;111.8;9.77;0.032;-0.033;1.006;6.56;-67.68;-50.08
148;47.474;19.0630333333333;111.8;9.77;0.024;-0.047;1.001;7.36;-67.36;-49.44
148;47.474;19.0630333333333;111.8;9.77;0.046;-0.036;1.028;7.36;-67.36;-49.44
148;47.474;19.0630333333333;111.8;9.77;0.07;-0.087;1.006;7.36;-67.36;-49.44
148;47.474;19.0630333333333;111.8;9.77;0.037;-0.057;0.962;7.36;-67.36;-49.44
148;47.474;19.0630333333333;111.8;9.77;0.053;0.019;1.008;7.36;-67.36;-49.44
148;47.474;19.0630333333333;111.8;9.77;0.064;0;0.983;7.36;-67.36;-49.44
150;47.474;19.063;111.6;9.12;0.052;-0.025;1.061;6.24;-67.52;-48.32
150;47.474;19.063;111.6;9.12;0.093;-0.009;1.015;6.24;-67.52;-48.32
150;47.474;19.063;111.6;9.12;0.098;-0.063;1.044;6.24;-67.52;-48.32
150;47.474;19.063;111.6;9.12;0.089;0.002;0.995;6.24;-67.52;-48.32
150;47.474;19.063;111.6;9.12;0.096;-0.139;1.005;8.32;-67.04;-49.28
150;47.474;19.063;111.6;9.12;0.053;0.016;0.974;8.32;-67.04;-49.28
150;47.474;19.063;111.6;9.12;0.052;-0.098;1.031;8.32;-67.04;-49.28
150;47.474;19.063;111.6;9.12;0.068;-0.061;0.98;8.32;-67.04;-49.28
150;47.474;19.063;111.6;9.12;0.083;-0.174;0.999;8.32;-67.04;-49.28
151;47.474;19.063;111.6;9.12;0.072;-0.129;1.007;7.68;-68;-48.48
152;47.474;19.063;111.6;9.12;0.092;-0.019;0.983;9.92;-68.32;-49.44
152;47.474;19.063;111.6;9.12;0.106;-0.109;0.975;9.92;-68.32;-49.44
152;47.474;19.063;111.6;9.12;0.177;-0.017;0.959;9.92;-68.32;-49.44
152;47.474;19.063;111.6;9.12;0.133;-0.066;0.976;9.92;-68.32;-49.44
152;47.474;19.063;111.6;9.12;0.163;-0.061;0.999;9.92;-68.32;-49.44
152;47.474;19.063;111.6;9.12;0.173;-0.045;0.983;9.92;-67.36;-48.16
152;47.474;19.063;111.6;9.12;0.164;-0.083;0.992;9.92;-67.36;-48.16
152;47.474;19.063;111.6;9.12;0.153;-0.124;1.018;9.92;-67.36;-48.16
152;47.474;19.063;111.6;9.12;0.124;-0.067;1.051;9.92;-67.36;-48.16
152;47.474;19.063;111.6;9.12;0.157;-0.073;1.03;9.92;-67.36;-48.16
152;47.474;19.063;111.6;9.12;0.192;-0.099;1.013;9.92;-67.36;-48.16
152;47.474;19.063;111.6;9.12;0.122;-0.059;0.996;11.52;-68.48;-48.32
153;47.474;19.063;111.6;9.12;0.091;-0.08;0.994;11.52;-68.48;-48.32
153;47.474;19.063;111.6;9.12;0.144;-0.171;0.977;11.52;-68.48;-48.32
153;47.474;19.063;111.6;9.12;0.07;-0.09;0.95;11.52;-68.48;-48.32
153;47.474;19.063;111.6;9.12;0.021;-0.139;1.011;11.52;-68.48;-48.32
153;47.474;19.063;111.6;9.12;0.058;-0.162;0.975;12.96;-69.12;-50.4
153;47.474;19.063;111.6;9.12;0.138;-0.191;0.967;12.96;-69.12;-50.4
153;47.474;19.063;111.6;9.12;0.064;-0.184;1.017;12.96;-69.12;-50.4
153;47.474;19.063;111.6;9.12;0.058;-0.156;1.02;12.96;-69.12;-50.4
153;47.474;19.063;111.6;9.12;0.083;-0.15;1.031;12.96;-69.12;-50.4
154;47.474;19.0629666666667;111.3;9.12;0.072;-0.165;1;13.28;-68.32;-48.16
154;47.474;19.0629666666667;111.3;9.12;0.041;-0.132;1.04;13.28;-68.32;-48.16
155;47.474;19.0629666666667;111.3;8.1;0.034;-0.157;1.031;13.28;-68.32;-48.16
155;47.474;19.0629666666667;111.3;8.1;0.024;-0.15;1.005;13.28;-68.32;-48.16
155;47.474;19.0629666666667;111.3;8.1;0.047;-0.136;1.009;13.28;-68.32;-48.16
155;47.474;19.0629666666667;111.3;8.1;0.026;-0.051;0.992;15.04;-69.28;-47.52
155;47.474;19.0629666666667;111.3;8.1;0.064;-0.132;0.962;15.04;-69.28;-47.52
155;47.474;19.0629666666667;111.3;8.1;0.042;-0.068;1;15.04;-69.28;-47.52
155;47.474;19.0629666666667;111.3;8.1;0.095;-0.081;1.015;15.04;-69.28;-47.52
155;47.474;19.0629666666667;111.3;8.1;0.108;-0.066;1.008;15.04;-69.28;-47.52
155;47.474;19.0629666666667;111.3;8.1;0.143;-0.153;0.997;15.04;-69.28;-47.52
155;47.474;19.0629666666667;111.3;8.1;0.214;-0.09;0.978;17.92;-68.48;-47.68
155;47.474;19.0629666666667;111.3;8.1;0.188;-0.126;1.028;17.92;-68.48;-47.68
156;47.474;19.0629666666667;111.3;8.1;0.179;-0.083;1.041;17.92;-68.48;-47.68
156;47.474;19.0629666666667;111.3;8.1;0.179;-0.149;1.023;17.92;-68.48;-47.68
156;47.474;19.0629666666667;111.3;8.1;0.141;-0.141;1.032;17.92;-68.48;-47.68
156;47.474;19.0629666666667;111.3;8.1;0.102;-0.155;1.041;20;-69.12;-46.88
156;47.474;19.0629666666667;111.3;8.1;0.076;-0.095;0.98;20;-69.12;-46.88
156;47.474;19.0629666666667;111.3;8.1;0.07;-0.111;0.983;20;-69.12;-46.88
156;47.474;19.0629666666667;111.3;8.1;0.08;-0.132;0.975;20;-69.12;-46.88
156;47.474;19.0629666666667;111.3;8.1;0.056;-0.105;1.025;20;-69.12;-46.88
156;47.474;19.0629666666667;111.3;8.1;0.046;-0.117;0.99;20;-69.12;-46.88
156;47.474;19.0629666666667;111.3;8.1;0.034;-0.098;0.971;21.6;-68.16;-48.96
156;47.474;19.0629666666667;111.3;8.1;0.053;-0.037;1.008;21.6;-68.16;-48.96
156;47.474;19.0629666666667;111.3;8.1;0.027;-0.032;0.918;21.6;-68.16;-48.96
156;47.474;19.0629666666667;111.3;8.1;0.047;-0.07;0.991;21.6;-68.16;-48.96
157;47.474;19.0629666666667;111.3;8.1;0.079;-0.113;0.967;21.6;-68.16;-48.96
157;47.474;19.0629666666667;111.3;8.1;0.09;-0.177;0.963;23.52;-68.48;-48.16
157;47.474;19.0629666666667;111.3;8.1;0.055;-0.167;0.936;23.52;-68.48;-48.16
157;47.474;19.0629666666667;111.3;8.1;0.104;-0.125;0.975;23.52;-68.48;-48.16
157;47.474;19.0629666666667;111.3;8.1;0.047;-0.22;0.956;23.52;-68.48;-48.16
157;47.474;19.0629666666667;111.3;8.1;0.104;-0.226;0.948;23.52;-68.48;-48.16
157;47.474;19.0629666666667;111.3;8.1;0.128;-0.139;0.983;23.52;-68.48;-48.16
157;47.474;19.0629666666667;111.3;8.1;0.059;-0.194;0.964;25.6;-67.52;-48.32
157;47.474;19.0629666666667;111.3;8.1;0.08;-0.19;1.024;25.6;-67.52;-48.32
157;47.474;19.0629666666667;111.3;8.1;0.125;-0.181;1.03;25.6;-67.52;-48.32
157;47.474;19.0629666666667;111.3;8.1;0.096;-0.219;1.027;25.6;-67.52;-48.32
158;47.474;19.0629333333333;111.2;8.1;0.145;-0.247;1.056;25.6;-67.52;-48.32
158;47.474;19.0629333333333;111.2;8.1;0.171;-0.231;1.093;27.36;-65.6;-47.52
158;47.474;19.0629333333333;111.2;8.1;0.182;-0.213;1.09;27.36;-65.6;-47.52
158;47.474;19.0629333333333;111.2;8.1;0.105;-0.24;1.09;27.36;-65.6;-47.52
158;47.474;19.0629333333333;111.2;8.1;0.142;-0.352;1.088;27.36;-65.6;-47.52
158;47.474;19.0629333333333;111.2;8.1;0.055;-0.294;1.069;27.36;-65.6;-47.52
158;47.474;19.0629333333333;111.2;8.1;-0.004;-0.222;1.038;27.36;-65.6;-47.52
158;47.474;19.0629333333333;111.2;8.1;0.052;-0.375;1.003;28.32;-65.44;-50.08
158;47.474;19.0629333333333;111.2;8.1;0.032;-0.254;0.987;28.32;-65.44;-50.08
158;47.474;19.0629333333333;111.2;8.1;0.013;-0.231;0.985;28.32;-65.44;-50.08
158;47.474;19.0629333333333;111.2;8.1;0.09;-0.267;0.964;28.32;-65.44;-50.08
159;47.474;19.0629333333333;111.2;8.1;0.056;-0.1;0.99;28.32;-65.44;-50.08
159;47.474;19.0629333333333;111.2;8.1;0.036;-0.258;1.008;29.76;-64.48;-49.92
159;47.474;19.0629333333333;111.2;8.1;0.089;-0.135;1;29.76;-64.48;-49.92
159;47.474;19.0629333333333;111.2;8.1;0.067;-0.201;1.024;29.76;-64.48;-49.92
159;47.474;19.0629333333333;111.2;8.1;0.06;-0.182;1.001;29.76;-64.48;-49.92
159;47.474;19.0629333333333;111.2;8.1;0.125;-0.192;0.971;29.76;-64.48;-49.92
159;47.474;19.0629333333333;111.2;8.1;0.139;-0.113;0.993;29.76;-64.48;-49.92
159;47.474;19.0629333333333;111.2;8.1;0.157;-0.208;0.986;30.08;-63.2;-52
159;47.474;19.0629333333333;111.2;8.1;0.193;-0.133;0.964;30.08;-63.2;-52
159;47.474;19.0629333333333;111.2;8.1;0.194;-0.17;0.944;30.08;-63.2;-52
159;47.474;19.0629333333333;111.2;8.1;0.163;-0.137;0.961;30.08;-63.2;-52
160;47.474;19.0629333333333;111.2;8.64;0.145;-0.23;0.96;30.08;-63.2;-52
160;47.474;19.0629333333333;111.2;8.64;0.161;-0.141;0.989;31.52;-62.88;-52.8
160;47.474;19.0629333333333;111.2;8.64;0.137;-0.201;0.992;31.52;-62.88;-52.8
160;47.474;19.0629333333333;111.2;8.64;0.127;-0.173;0.976;31.52;-62.88;-52.8
160;47.474;19.0629333333333;111.2;8.64;0.107;-0.132;0.997;31.52;-62.88;-52.8
160;47.474;19.0629333333333;111.2;8.64;0.091;-0.187;1.027;31.52;-62.88;-52.8
160;47.474;19.0629333333333;111.2;8.64;0.115;-0.073;0.996;31.52;-62.88;-52.8
160;47.474;19.0629333333333;111.2;8.64;0.178;-0.164;1.025;31.84;-61.76;-51.68
160;47.474;19.0629333333333;111.2;8.64;0.175;-0.091;0.977;31.84;-61.76;-51.68
160;47.474;19.0629333333333;111.2;8.64;0.2;-0.009;1.019;31.84;-61.76;-51.68
160;47.474;19.0629333333333;111.2;8.64;0.244;-0.039;0.984;31.84;-61.76;-51.68
160;47.474;19.0629333333333;111.2;8.64;0.269;-0.145;1.024;31.84;-61.76;-51.68
161;47.474;19.0629333333333;111.2;8.64;0.226;-0.367;1.002;32.8;-57.6;-53.92
161;47.474;19.0629333333333;111.2;8.64;0.215;-0.236;1.03;32.8;-57.6;-53.92
161;47.474;19.0629333333333;111.2;8.64;0.2;-0.155;1.047;32.8;-57.6;-53.92
161;47.474;19.0629333333333;111.2;8.64;0.228;-0.163;0.989;32.8;-57.6;-53.92
161;47.474;19.0629333333333;111.2;8.64;0.209;-0.132;1.045;32.8;-57.6;-53.92
161;47.474;19.0629333333333;111.2;8.64;0.213;-0.238;1.081;32.8;-57.6;-53.92
161;47.474;19.0629333333333;111.2;8.64;0.218;-0.325;1.035;33.76;-57.44;-54.08
161;47.474;19.0629333333333;111.2;8.64;0.232;-0.215;1.023;33.76;-57.44;-54.08
161;47.474;19.0629333333333;111.2;8.64;0.165;-0.224;0.982;33.76;-57.44;-54.08
161;47.474;19.0629333333333;111.2;8.64;0.155;-0.144;0.992;33.76;-57.44;-54.08
162;47.474;19.0629;110.9;8.64;0.22;-0.179;0.912;33.76;-57.44;-54.08
163;47.474;19.0629;110.9;9.1;0.169;-0.16;0.961;35.36;-55.52;-53.44
163;47.474;19.0629;110.9;9.1;0.159;-0.187;0.984;35.36;-55.52;-53.44
163;47.474;19.0629;110.9;9.1;0.244;-0.093;0.949;35.36;-55.52;-53.44
163;47.474;19.0629;110.9;9.1;0.24;-0.1;0.994;35.36;-55.52;-53.44
163;47.474;19.0629;110.9;9.1;0.183;-0.06;0.976;35.36;-55.52;-53.44
163;47.474;19.0629;110.9;9.1;0.236;-0.044;1.031;35.36;-55.52;-53.44
163;47.474;19.0629;110.9;9.1;0.184;-0.051;1.013;35.36;-55.52;-53.44
163;47.474;19.0629;110.9;9.1;0.202;-0.143;1.055;35.36;-55.52;-53.44
163;47.474;19.0629;110.9;9.1;0.206;-0.16;1.008;35.36;-55.52;-53.44
163;47.474;19.0629;110.9;9.1;0.176;-0.1;0.992;35.36;-55.52;-53.44
164;47.474;19.0629;110.9;9.1;0.035;-0.057;0.895;40.8;-52;-53.28
164;47.474;19.0629;110.9;9.1;0.156;-0.043;0.939;40.8;-52;-53.28
165;47.4740166666667;19.0628833333333;111.1;9.1;0.155;0.004;0.967;42.4;-51.04;-53.12
165;47.4740166666667;19.0628833333333;111.1;9.1;0.258;-0.113;0.962;42.4;-51.04;-53.12
165;47.4740166666667;19.0628833333333;111.1;9.1;0.249;-0.023;0.914;42.4;-51.04;-53.12
165;47.4740166666667;19.0628833333333;111.1;9.1;0.254;-0.01;0.959;42.4;-51.04;-53.12
165;47.4740166666667;19.0628833333333;111.1;9.1;0.186;0.016;0.943;42.4;-51.04;-53.12
165;47.4740166666667;19.0628833333333;111.1;9.1;0.22;-0.024;0.955;42.56;-50.24;-54.08
165;47.4740166666667;19.0628833333333;111.1;9.1;0.171;-0.041;0.984;42.56;-50.24;-54.08
165;47.4740166666667;19.0628833333333;111.1;9.1;0.175;-0.022;0.985;42.56;-50.24;-54.08
165;47.4740166666667;19.0628833333333;111.1;9.1;0.218;-0.006;1.023;42.56;-50.24;-54.08
166;47.4740166666667;19.0628833333333;111.1;9.6;0.307;-0.061;1.115;42.56;-50.24;-54.88
166;47.4740166666667;19.0628833333333;111.1;9.6;0.279;-0.075;1.095;42.56;-50.24;-54.88
166;47.4740166666667;19.0628833333333;111.1;9.6;0.293;-0.072;1.087;42.56;-50.24;-54.88
166;47.4740166666667;19.0628833333333;111.1;9.6;0.257;-0.091;1.079;42.56;-50.24;-54.88
166;47.4740166666667;19.0628833333333;111.1;9.6;0.242;-0.11;1.007;42.56;-50.24;-54.88
166;47.4740166666667;19.0628833333333;111.1;9.6;0.239;-0.043;0.977;42.4;-49.28;-55.52
166;47.4740166666667;19.0628833333333;111.1;9.6;0.148;0.054;0.994;42.4;-49.28;-55.52
166;47.4740166666667;19.0628833333333;111.1;9.6;0.077;0.06;0.952;42.4;-49.28;-55.52
166;47.4740166666667;19.0628833333333;111.1;9.6;0.054;-0.019;1.007;42.4;-49.28;-55.52
166;47.4740166666667;19.0628833333333;111.1;9.6;0.08;-0.035;1.008;42.4;-49.28;-55.52
166;47.4740166666667;19.0628833333333;111.1;9.6;0.141;-0.073;0.994;42.4;-49.28;-55.52
167;47.4740166666667;19.0628833333333;111.1;9.6;0.197;0.014;0.994;43.52;-49.44;-56
167;47.4740166666667;19.0628833333333;111.1;9.6;0.231;0.015;0.955;43.52;-49.44;-56
167;47.4740166666667;19.0628833333333;111.1;9.6;0.176;0.058;0.995;43.52;-49.44;-56
167;47.4740166666667;19.0628833333333;111.1;9.6;0.102;0.099;0.974;43.52;-49.44;-56
167;47.4740166666667;19.0628833333333;111.1;9.6;0.078;0.028;1.023;43.52;-49.44;-56
167;47.4740166666667;19.0628833333333;111.1;9.6;0.076;0.087;1.021;44.64;-49.28;-56.32
167;47.4740166666667;19.0628833333333;111.1;9.6;0.111;-0.061;1.04;44.64;-49.28;-56.32
167;47.4740166666667;19.0628833333333;111.1;9.6;0.178;-0.038;0.984;44.64;-49.28;-56.32
167;47.4740166666667;19.0628833333333;111.1;9.6;0.243;-0.049;1.04;44.64;-49.28;-56.32
167;47.4740166666667;19.0628833333333;111.1;9.6;0.22;-0.031;1.034;44.64;-49.28;-56.32
168;47.4740166666667;19.0628833333333;111.1;9.6;0.045;0.074;0.99;45.6;-48.16;-57.28
168;47.4740166666667;19.0628833333333;111.1;9.6;0.058;0.118;0.991;45.6;-48.16;-57.28
169;47.4740166666667;19.0628833333333;111.1;9.6;0.199;-0.006;0.948;45.6;-48.16;-57.28
169;47.4740166666667;19.0628833333333;111.1;9.6;0.273;-0.001;0.994;45.6;-48.16;-57.28
169;47.4740166666667;19.0628833333333;111.1;9.6;0.136;0.039;0.991;45.6;-48.16;-57.28
169;47.4740166666667;19.0628833333333;111.1;9.6;0.066;0.103;1.02;44;-48;-57.92
169;47.4740166666667;19.0628833333333;111.1;9.6;0.105;-0.031;0.983;44;-48;-57.92
169;47.4740166666667;19.0628833333333;111.1;9.6;0.16;-0.04;0.979;44;-48;-57.92
169;47.4740166666667;19.0628833333333;111.1;9.6;0.234;0.071;0.989;44;-48;-57.92
169;47.4740166666667;19.0628833333333;111.1;9.6;0.23;0.137;1.001;44;-48;-57.92
169;47.4740166666667;19.0628833333333;111.1;9.6;0.141;0.144;1.011;44;-48;-57.92
169;47.4740166666667;19.0628833333333;111.1;9.6;0.092;0.006;1.001;43.2;-47.04;-59.52
170;47.47405;19.0628666666667;111.1;9.6;0.224;-0.056;0.974;43.2;-47.04;-59.52
170;47.47405;19.0628666666667;111.1;9.6;0.214;0.045;0.967;43.2;-47.04;-59.52
170;47.47405;19.0628666666667;111.1;9.6;0.175;0.093;0.999;43.2;-47.04;-59.52
170;47.47405;19.0628666666667;111.1;9.6;0.076;0.048;0.998;43.2;-47.04;-59.52
170;47.47405;19.0628666666667;111.1;9.6;0.159;-0.167;0.98;42.88;-46.72;-61.6
170;47.47405;19.0628666666667;111.1;9.6;0.339;-0.05;0.971;42.88;-46.72;-61.6
170;47.47405;19.0628666666667;111.1;9.6;0.208;-0.006;1.003;42.88;-46.72;-61.6
170;47.47405;19.0628666666667;111.1;9.6;0.141;0.165;1.005;42.88;-46.72;-61.6
170;47.47405;19.0628666666667;111.1;9.6;0.067;-0.078;1.027;42.88;-46.72;-61.6
170;47.47405;19.0628666666667;111.1;9.6;0.253;-0.104;0.992;42.88;-46.72;-61.6
170;47.47405;19.0628666666667;111.1;9.6;0.308;-0.007;1.022;43.2;-46.08;-62.56
170;47.47405;19.0628666666667;111.1;9.6;0.118;0.215;1.014;43.2;-46.08;-62.56
171;47.47405;19.0628666666667;111.1;10.33;0.181;0.125;0.936;43.2;-46.08;-62.56
171;47.47405;19.0628666666667;111.1;10.33;0.276;0;0.966;43.2;-46.08;-62.56
171;47.47405;19.0628666666667;111.1;10.33;0.305;-0.175;1.039;43.2;-46.08;-62.56
171;47.47405;19.0628666666667;111.1;10.33;0.305;0.067;1.044;42.24;-46.08;-64
171;47.47405;19.0628666666667;111.1;10.33;0.114;0.095;1.044;42.24;-46.08;-64
171;47.47405;19.0628666666667;111.1;10.33;0.149;-0.011;1.011;42.24;-46.08;-64
171;47.47405;19.0628666666667;111.1;10.33;0.254;-0.17;0.97;42.24;-46.08;-64
171;47.47405;19.0628666666667;111.1;10.33;0.274;-0.035;0.999;42.24;-46.08;-64
171;47.47405;19.0628666666667;111.1;10.33;0.23;0.1;1.064;42.24;-46.08;-64
171;47.47405;19.0628666666667;111.1;10.33;0.14;0.081;1.013;41.6;-45.28;-66.08
171;47.47405;19.0628666666667;111.1;10.33;0.336;-0.201;1.016;41.6;-45.28;-66.08
171;47.47405;19.0628666666667;111.1;10.33;0.456;-0.213;0.959;41.6;-45.28;-66.08
172;47.47405;19.0628666666667;111.1;10.33;-0.08;0.31;1.029;41.6;-45.28;-66.08
172;47.47405;19.0628666666667;111.1;10.33;0.12;0.086;0.908;41.6;-45.28;-66.08
172;47.47405;19.0628666666667;111.1;10.33;0.134;0.408;1.027;40.64;-45.6;-66.88
172;47.47405;19.0628666666667;111.1;10.33;0.102;0.189;1.077;40.64;-45.6;-66.88
172;47.47405;19.0628666666667;111.1;10.33;-0.021;0.228;1.056;40.64;-45.6;-66.88
172;47.47405;19.0628666666667;111.1;10.33;0.158;-0.029;1.008;40.64;-45.6;-66.88
172;47.47405;19.0628666666667;111.1;10.33;0.186;0.099;0.966;40.64;-45.6;-66.88
172;47.47405;19.0628666666667;111.1;10.33;0.023;0.177;1.036;40.64;-45.6;-66.88
172;47.47405;19.0628666666667;111.1;10.33;0.074;0.096;1.002;40.32;-44.16;-67.84
172;47.47405;19.0628666666667;111.1;10.33;0.277;-0.01;0.968;40.32;-44.16;-67.84
172;47.47405;19.0628666666667;111.1;10.33;0.084;0.178;1;40.32;-44.16;-67.84
172;47.47405;19.0628666666667;111.1;10.33;0.017;0.262;1.058;40.32;-44.16;-67.84
173;47.47405;19.0628666666667;111.1;10.33;0.312;-0.108;0.947;40.32;-44.16;-67.84
173;47.47405;19.0628666666667;111.1;10.33;0.193;0.152;0.982;40.32;-44.16;-67.84
173;47.47405;19.0628666666667;111.1;10.33;0.065;0.04;0.989;40.32;-44.16;-67.84
173;47.47405;19.0628666666667;111.1;10.33;0.241;-0.107;0.904;40.32;-44.16;-67.84
173;47.47405;19.0628666666667;111.1;10.33;0.277;0.049;0.904;40.32;-44.16;-67.84
173;47.47405;19.0628666666667;111.1;10.33;0.077;0.179;0.985;40.32;-44.16;-67.84
173;47.47405;19.0628666666667;111.1;10.33;0.178;-0.058;0.977;40.32;-44.16;-67.84
173;47.47405;19.0628666666667;111.1;10.33;0.322;-0.105;0.877;40.32;-44.16;-67.84
173;47.47405;19.0628666666667;111.1;10.33;0.119;0.079;0.955;36.64;-42.56;-69.44
173;47.47405;19.0628666666667;111.1;10.33;0.104;-0.083;0.96;36.64;-42.56;-69.44
173;47.47405;19.0628666666667;111.1;10.33;0.255;-0.145;0.944;36.64;-42.56;-69.44
173;47.47405;19.0628666666667;111.1;10.33;0.103;0.061;0.909;36.64;-42.56;-69.44
174;47.4740833333333;19.0628666666667;110.8;12.84;0.178;0.079;0.975;33.28;-44.32;-68.16
174;47.4740833333333;19.0628666666667;110.8;12.84;0.156;0.336;1.058;33.28;-44.32;-68.16
174;47.4740833333333;19.0628666666667;110.8;12.84;0.14;0.159;1.131;33.28;-44.32;-68.16
174;47.4740833333333;19.0628666666667;110.8;12.84;0.032;0.175;0.961;33.76;-46.88;-66.56
174;47.4740833333333;19.0628666666667;110.8;12.84;0.068;0.106;1.006;33.76;-46.88;-66.56
174;47.4740833333333;19.0628666666667;110.8;12.84;0.217;-0.005;0.99;33.76;-46.88;-66.56
